! Center RA: 02 22 39.61100,  Dec: +43 02 07.79900 (2000.0)
! Established model.
! Flux (Jy) Radius (mas)  Theta (deg)  Major (mas)  Axial ratio   Phi (deg) T \
! Freq (Hz)     SpecIndex
0.00231731     0.660000      180.000 
0.000726431     0.670000      180.000 
0.000423743     0.832166     -175.865 
0.000837704     0.842140     -175.914 
0.00195544     0.650077      179.119 
0.00159525     0.862844     -175.347 
0.000845444     0.872811     -175.400 
0.000595430     0.660076      179.132 
0.00156220     0.882780     -175.452 
0.00157831     0.892748     -175.503 
0.00131377     0.680000      180.000 
0.00148900     0.902718     -175.553 
0.000950097     0.912688     -175.601 
0.000780227      1.10018     -178.958 
0.00220898     0.670074      179.145 
0.000869928      1.12004     -179.488 
0.000312103     0.822192     -175.815 
0.00125569      1.13004     -179.493 
0.000342727     0.812219     -175.764 
0.000561380      1.14004     -179.497 
0.000192325     0.802247     -175.711 
3.81649e-05     0.670298      178.290 
 0.0240691    0.0100000      90.0000 
 0.0400777      0.00000      0.00000 
 0.0219649    0.0141422      44.9996 
0.000791508    0.0640310     -141.340 
0.00377884    0.0860232     -144.462 
0.00504017    0.0282845      44.9996 
0.00419844    0.0999998     -143.130 
0.00880885    0.0424265      44.9999 
0.00262252     0.108166     -146.310 
0.00487326     0.114017     -142.125 
0.00649276     0.122065     -145.008 
0.00936777    0.0500001      53.1300 
 0.0110019     0.120416     -138.366 
0.00765313    0.0538518      68.1983 
0.00223758    0.0608276      80.5375 
0.00112995     0.120416     -131.633 
0.00515820     0.114018     -127.875 
0.00408420    0.0600000      90.0000 
0.00630748    0.0707107      98.1299 
0.000940914     0.108166     -123.690 
0.000307827     0.178885     -153.435 
0.000607351     0.102956     -119.054 
0.000299964     0.187883     -154.799 
0.000297130    0.0984885     -113.962 
0.000582018     0.196977     -156.037 
0.00142755     0.104403     -106.699 
0.000559160     0.206155     -157.166 
0.00134054     0.101980     -101.310 
0.000536358     0.215406     -158.199 
0.000769646     0.224722     -159.146 
0.00174024     0.100499     -95.7105 
0.000754243    0.0824620      104.036 
0.000968920     0.234094     -160.017 
0.000947714     0.101980      11.3099 
0.00186910    0.0854399      110.556 
0.00284665     0.100000     -90.0000 
0.000910023     0.243516     -160.821 
0.00107320     0.111804      10.3048 
0.00106662     0.256320     -159.444 
0.00278867    0.0984885      113.962 
0.000204288     0.269258     -158.199 
0.00115805     0.121656      9.46229 
0.000400599     0.278567     -158.962 
0.00171976     0.100499     -84.2893 
0.000771306     0.291547     -157.834 
0.000734520     0.304631     -156.801 
0.00137833     0.131530      8.74615 
0.00217188     0.110454     -84.8055 
0.000178388     0.250000     -163.740 
0.00149282     0.102956      119.054 
0.000176547     0.313847     -157.521 
0.000346072     0.317805     -155.854 
0.000340314     0.247386     -165.964 
0.00113748     0.326955     -156.571 
0.000163431     0.245153     -168.232 
0.00165456     0.141422      8.13009 
0.000314742     0.243310     -170.538 
0.00145734     0.340147     -155.695 
0.000594832     0.241868     -172.875 
0.00268283     0.111803     -79.6950 
0.00300642     0.111803      116.565 
0.000818557     0.240832     -175.236 
0.00166811     0.151328      7.59462 
0.00117196     0.349285     -156.371 
0.00172656     0.116619      120.964 
0.000977944     0.240208     -177.614 
0.00149876     0.353412     -154.885 
0.000568259     0.152971      11.3099 
0.000451851     0.114018     -74.7448 
0.000227233     0.250200     -177.709 
0.000114228     0.161245      7.12501 
0.00142818     0.250000      180.000 
0.00112393     0.123693     -75.9637 
0.00245623     0.162788      10.6196 
0.00399436     0.362491     -155.556 
0.00188469     0.126491     -71.5649 
0.000360978     0.250200      177.709 
0.00127234     0.260192      177.797 
0.00486873     0.172627      10.0080 
0.00261840     0.286531     -119.249 
0.000641660     0.270185      177.879 
0.00144292     0.130000     -67.3800 
0.000564877     0.270739      175.764 
0.00122110     0.371618     -156.194 
0.00312890     0.405216      164.249 
0.00108748     0.107703      111.801 
0.000260139     0.280000      180.000 
0.00117454     0.143178     -65.2248 
0.000785696     0.380789     -156.801 
0.000410245     0.280178     -177.955 
0.000239430     0.280713     -175.914 
0.000671161     0.390000     -157.380 
0.000438416     0.290688     -176.055 
0.00120400     0.147648     -61.6993 
0.000241607     0.104403      106.699 
0.000847218     0.399249     -157.932 
0.000423750     0.395601      163.856 
0.000319547     0.412310     -157.166 
0.000304394     0.291547     -174.094 
0.000915017     0.197231      30.4655 
5.26239e-05     0.421545     -157.694 
0.000710563     0.171172      6.70984 
0.000568004     0.544242     -159.567 
0.000505448     0.301496     -174.289 
0.000645318     0.152644     -58.3923 
0.000189888     0.311448     -174.472 
0.00197990      1.40071      170.134 
0.00334340      1.41057      170.204 
0.00329305      1.32439     -165.124 
0.00151390      1.70018     -166.045 
0.00218541      1.61645     -156.289 
0.000236924      1.49335     -176.160 
0.00139336      1.48408     -175.749 
0.000298883      1.60723     -163.369 
0.000864142      1.62561     -156.431 
0.000387785      1.59101     -162.818 
0.00376005      2.88624     -159.305 
0.00257632      1.47340     -176.108 
0.000889859      2.88045     -159.048 
0.000855836      1.47275     -176.496 
0.000330778      3.44327     -150.606 
0.000362248      3.45198     -150.687 
0.000284852      3.46560     -150.624 
0.000355747      3.47432     -150.705 
0.000467072      3.48304     -150.786 
0.000372009      3.49178     -150.866 
0.000155437      3.62581     -150.961 
0.000808852      3.63067     -150.823 
0.000172590      3.47817     -150.929 
0.000263745      3.47333     -151.074 
1.63199e-05      3.48692     -151.009 
0.000205194      3.46850     -151.218 
0.000230942      3.63556     -150.685 
0.00213755      2.46895     -175.121 
0.00157075      2.46812     -175.352 
0.000777857      2.47808     -175.371 
0.00107007      2.47891     -175.140 
0.000124698      2.42405     -176.689 
0.000242892      2.41350     -176.912 
0.000121601      2.47978     -174.910 
0.000237238      2.48069     -174.680 
0.000118439      2.41299     -177.149 
0.000231313      2.40300     -177.138 
0.000342164      2.48163     -174.450 
0.000334001      2.40252     -177.376 
0.000327179      2.48262     -174.221 
0.000108079      2.40208     -177.614 
0.000211525      2.62275     -177.378 
0.000412404      2.39209     -177.604 
0.000410173      2.48365     -173.991 
0.000202009      2.63274     -177.388 
9.90853e-05      2.19647     -171.095 
9.83742e-05      2.38210     -177.594 
0.000381065      2.64273     -177.397 
0.000654100      2.18660     -171.055 
0.000190952      2.48471     -173.762 
0.000189957      2.38170     -177.834 
0.000269695      2.65272     -177.407 
0.000267985      2.37171     -177.825 
0.000179632      2.49465     -173.787 
0.000589204      2.17672     -171.014 
0.000170917      2.49576     -173.558 
0.000417354      2.66271     -177.417 
0.000411231      2.37135     -178.067 
0.00147633      2.93171     -171.566 
0.000668693      2.50569     -173.584 
0.000940982      2.16684     -170.972 
0.000304085      2.66227     -177.632 
0.000370211      2.36136     -178.059 
0.000774077      2.67226     -177.641 
6.96114e-05      2.37103     -178.308 
0.000449018      2.36104     -178.301 
0.00134516      2.50683     -173.357 
0.000248354      2.93319     -171.373 
0.000717181      2.15697     -170.931 
0.000485625      2.94160     -171.594 
0.000389905      2.35104     -178.294 
5.66401e-05      2.95584     -172.418 
0.000419906      2.68226     -177.650 
5.60104e-05      2.93471     -171.180 
0.000109659      2.92638     -170.956 
5.48410e-05      2.95327     -172.803 
0.000158825      2.14709     -170.889 
5.37147e-05      2.96319     -172.827 
0.000105293      2.92797     -170.763 
0.000104257      2.96196     -173.019 
0.000526684      2.14870     -170.625 
0.000472446      2.35077     -178.537 
0.000101339      2.91973     -170.538 
0.000149099      2.96076     -173.211 
0.000192021      2.92139     -170.344 
0.000230809      2.95959     -173.403 
0.000184636      2.67187     -177.855 
0.000223308      2.92308     -170.151 
0.000376688      2.68186     -177.863 
0.000404460      2.95846     -173.596 
0.000517438      2.13883     -170.582 
4.25256e-05      2.93293     -170.184 
8.36368e-05      2.44000      180.000 
8.29967e-05      2.92481     -169.958 
4.16907e-05      2.34077     -178.531 
0.000155605      2.67152     -178.069 
0.000196638      2.93465     -169.992 
7.91878e-05      2.33105     -178.279 
7.77288e-05      2.43000      180.000 
3.77028e-05      2.32138     -178.025 
0.000111520      3.05984     -169.645 
7.29431e-05      2.42000      180.000 
0.000908552      2.95736     -173.788 
3.64257e-05      2.32106     -178.272 
0.000175523      3.07148     -169.495 
0.000539684      2.50801     -173.130 
3.58220e-05      2.93641     -169.800 
0.000327756      2.12897     -170.538 
0.000102881      2.31138     -178.017 
6.85710e-05      2.41000      180.000 
3.36966e-05      2.92657     -169.765 
0.000342673      3.08131     -169.529 
6.47806e-05      2.12735     -170.803 
9.54102e-05      2.40000      180.000 
6.26347e-05      2.91673     -169.730 
6.34230e-05      2.30176     -177.759 
9.39736e-05      2.69186     -177.871 
8.87899e-05      2.39000      180.000 
5.92310e-05      2.29218     -177.500 
0.000390073      2.70224     -177.667 
5.79819e-05      2.11910     -170.493 
5.67190e-05      2.11747     -170.760 
8.22088e-05      2.90689     -169.695 
0.000242477      3.09115     -169.563 
0.000109459      2.38000      180.000 
2.81396e-05      2.13410     -169.743 
8.13393e-05      2.28265     -177.238 
2.72959e-05      2.13591     -169.479 
2.68091e-05      2.11589     -171.027 
2.64936e-05      2.13776     -169.216 
5.12927e-05      2.11436     -171.295 
5.12670e-05      2.37000      180.000 
2.57498e-05      2.12793     -169.165 
7.50433e-05      1.99612     -166.381 
4.99440e-05      3.09298     -169.380 
9.45734e-05      2.27317     -176.974 
9.65377e-05      2.36000      180.000 
4.79482e-05      2.89705     -169.660 
7.07839e-05      2.11287     -171.563 
0.000273315      3.10280     -169.414 
4.81481e-05      1.98640     -166.314 
0.000158061      2.51794     -173.157 
6.96925e-05      1.97669     -166.245 
0.000110615      2.35000      180.000 
4.48696e-05      1.96698     -166.176 
4.36722e-05      1.95727     -166.106 
4.33663e-05      2.11142     -171.832 
2.18243e-05      2.88903     -169.429 
6.41694e-05      2.71223     -177.676 
4.23463e-05      1.94756     -166.035 
2.11077e-05      2.26374     -176.708 
2.09679e-05      3.11264     -169.448 
0.00112502      1.68467     -156.935 
6.11504e-05      1.92044     -163.358 
0.000242088      1.67547     -156.801 
0.000213951      1.93003     -163.443 
0.000125624      1.48061     -159.852 
0.000673408      1.93961     -163.527 
3.38479e-05      1.67943     -156.488 
0.000239050      1.67027     -156.351 
0.000293778      1.47719     -160.216 
0.000208912      1.47384     -160.582 
0.000134126      1.66111     -156.213 
7.60049e-05      1.47054     -160.949 
2.46343e-05      1.97773     -157.714 
1.03360e-05      1.93680     -163.811 
0.00227509      4.82147     -173.450 
9.22747e-05      4.83141     -173.463 
6.52769e-05      4.90442     -173.208 
2.09530e-05      4.91435     -173.222 
9.92119e-05      4.92546     -173.120 
3.96658e-05      4.81154     -173.436 
0.000110995      4.80047     -173.541 
0.000158177      4.93539     -173.134 
0.000131302      4.79053     -173.528 
9.27880e-05      4.94532     -173.148 
0.000114944      4.78060     -173.514 
0.000172417      4.94652     -173.033 
0.000213096      4.95645     -173.047 
2.62915e-05      4.77066     -173.501 
3.84154e-05      4.77948     -173.633 
0.000156533      4.76954     -173.620 
0.000179620      4.96638     -173.061 
9.29822e-05      4.75960     -173.607 
0.000644275      4.75310     -173.234 
7.56727e-05      4.92667     -173.005 
7.26766e-05      4.72451     -173.071 
0.000147687      4.93660     -173.019 
1.38665e-05      4.69596     -172.905 
0.000179850      4.62177     -172.291 
0.000136227      4.63318     -171.310 
1.10622e-05      4.72331     -173.191 
1.03335e-05      4.74200     -173.340 
0.000615332      5.03830     -156.488 
6.19061e-05      5.04747     -156.533 
0.000523690      4.94595     -161.125 
0.000445204      5.03314     -156.338 
0.000960461      4.75585     -168.477 
0.000786902      4.93325     -161.198 
0.000140446      5.14799     -152.589 
0.000134548      5.01886     -156.142 
4.50905e-05      5.01059     -151.901 
2.22058e-05      5.09472     -157.008 
6.54958e-05      5.15687     -152.640 
8.42693e-05      5.10393     -157.052 
0.000124153      5.00177     -151.847 
6.20401e-05      5.16575     -152.691 
5.86942e-05      5.01378     -155.991 
9.63763e-05      5.17464     -152.742 
5.83768e-05      5.11314     -157.096 
0.000428186      4.53475     -169.582 
0.000127037      4.99295     -151.793 
0.000587391      4.75786     -168.359 
5.50058e-05      5.12235     -157.139 
7.12927e-05      5.18353     -152.792 
3.57070e-05      5.00465     -155.945 
6.87004e-05      5.12770     -157.286 
0.000113879      5.19243     -152.843 
5.02987e-05      4.93004     -161.308 
0.000121165      4.99961     -155.793 
0.000154138      4.98414     -151.738 
9.41097e-05      5.13692     -157.329 
0.000452043      4.92057     -161.270 
0.000115077      5.20133     -152.893 
9.76710e-05      5.14615     -157.372 
0.000172554      4.97534     -151.684 
0.000368002      4.52492     -169.559 
0.000135945      5.21023     -152.943 
0.000180041      4.99461     -155.641 
8.63853e-05      5.15539     -157.414 
0.000207904      4.90789     -161.344 
0.000405693      4.76765     -168.384 
9.69900e-05      5.16462     -157.457 
0.000142173      5.21914     -152.993 
0.000229403      4.96654     -151.629 
3.90952e-05      4.89842     -161.306 
8.36312e-05      5.17386     -157.499 
0.000198169      4.88574     -161.380 
9.19079e-05      5.22805     -153.043 
3.35065e-05      5.18693     -157.440 
0.000134027      4.51509     -169.536 
8.10837e-05      4.98964     -155.490 
0.000102657      5.19616     -157.482 
0.000128050      4.87627     -161.342 
7.77442e-05      5.23259     -152.945 
5.53156e-05      4.54032     -166.239 
2.70640e-05      4.76967     -168.266 
6.54909e-06      5.20540     -157.524 
0.000746632      2.41251      177.387 
0.00201456      2.96233     -174.771 
0.00185309      4.17713     -152.944 
0.000957079      2.44295      177.184 
0.00110543      2.99481     -162.110 
0.000463414      2.98839     -161.868 
0.000404957     0.968401     -163.811 
0.000145873      3.11708     -172.442 
0.000761886      2.85245     -158.833 
0.000612308      3.10717     -172.418 
0.000652190     0.978008     -163.974 
0.000737501      3.47248     -151.442 
0.000262189      2.47342      176.987 
0.000152492      2.48340      176.999 
4.27003e-05     0.987623     -164.134 
0.000158772      2.84677     -158.572 
0.000280538      1.00424     -164.995 
8.12267e-05      2.34173      177.797 
0.000197100      2.50392      176.795 
7.43922e-05      2.33174      177.788 
0.000111398      3.08869     -172.185 
0.000129061      1.01390     -165.141 
5.44290e-05      2.83746     -158.499 
3.64853e-05      2.53444      176.607 
0.00154005      1.46823     -144.145 
0.000649561      1.76284     -176.748 
0.000366647      1.77282     -176.766 
0.000455028     0.602079     -147.894 
7.80346e-05     0.669402     -166.171 
0.00111596      1.53209     -177.007 
0.000227266     0.667083     -167.005 
0.000119434     0.948683     -161.565 
3.50874e-05      1.78227     -177.105 
3.38254e-05      1.78281     -176.785 
0.000671352      1.46014     -143.915 
0.000138219      1.79226     -177.122 
0.000235444     0.958175     -161.754 
0.000105904     0.655133     -167.661 
5.59345e-05     0.645368     -167.471 
0.000130510      1.80225     -177.138 
0.000556267     0.593633     -147.381 
0.000138167     0.633482     -168.158 
0.000203846     0.967677     -161.940 
0.000100374      1.81224     -177.153 
7.76062e-05     0.611882     -168.690 
0.000175899     0.977190     -162.121 
2.09040e-05     0.590339     -169.261 
5.94718e-05      1.82176     -177.483 
4.03226e-05     0.580517     -169.077 
7.77920e-05      1.45207     -143.683 
5.70460e-05     0.549181     -169.509 
0.000174904      1.83175     -177.497 
0.000269655      1.38409     -139.982 
7.71642e-05      1.46240     -144.462 
2.71264e-05     0.539351     -169.315 
7.96297e-05     0.703420     -165.174 
5.98947e-05     0.508035     -169.796 
0.000240204     0.986711     -162.300 
0.000257813     0.498197     -169.592 
0.000146601      1.47054     -144.689 
7.62741e-06     0.691231     -165.763 
2.83989e-05      1.84174     -177.510 
9.99946e-05      1.85132     -177.833 
7.69345e-05     0.989798     -161.748 
2.40937e-05      1.78718     -174.864 
3.46352e-05     0.585235     -146.853 
5.60441e-06      1.77814     -174.514 
0.000198923      2.52058     -160.774 
5.73518e-05      2.53002     -160.849 
0.000573485      2.52389     -160.560 
0.000171874      2.65663     -164.499 
0.000340387      2.65398     -164.707 
5.56792e-05      2.51446     -160.484 
0.000184082      2.65136     -164.915 
5.17466e-05      2.41019     -160.362 
0.000100190      2.66363     -164.764 
8.32401e-05      2.40077     -160.282 
6.41297e-05      2.53665     -160.422 
8.67806e-05      2.39136     -160.201 
3.76793e-05      2.68821     -164.464 
6.10701e-05      2.64877     -165.124 
9.17213e-05      2.38195     -160.120 
4.55650e-05      2.54608     -160.498 
5.76375e-05      2.70054     -164.317 
1.19499e-05      2.63655     -165.279 
5.86641e-06      2.37255     -160.038 
0.00256174      3.21549     -144.877 
0.000683000      3.09845     -150.622 
3.92653e-05      3.22943     -144.834 
0.000224334      3.32122     -144.683 
0.000404628      3.10717     -150.713 
0.000361325      3.32701     -144.542 
0.000200830      3.20732     -144.774 
3.20261e-05      2.98436     -149.826 
3.14331e-05      2.97572     -149.730 
0.000303791      3.19338     -144.817 
3.08628e-05      2.96709     -149.632 
3.05610e-05      2.97935     -149.993 
0.000118141      3.11589     -150.803 
0.000285839      3.33282     -144.402 
5.95421e-05      2.95846     -149.534 
0.000113866      2.94985     -149.436 
0.000135787      3.12463     -150.892 
0.000133327      2.94124     -149.337 
0.000229421      3.34096     -144.502 
0.000171454      3.13337     -150.981 
0.000148247      2.93264     -149.237 
0.000411898      3.33865     -144.263 
0.000252463      3.18522     -144.713 
0.000179839      2.92406     -149.137 
0.000194272      3.14212     -151.069 
0.000274044      2.91548     -149.036 
0.000190604      3.27341     -141.450 
0.000152339      3.15087     -151.157 
3.68041e-05      3.34677     -144.363 
0.000900820      6.76832     -169.271 
0.000113465      6.77814     -169.287 
0.000145481      7.00548     -169.139 
4.14096e-05      6.75849     -169.255 
9.90365e-05      6.64050     -168.622 
0.000151253      7.01530     -169.155 
0.000127693      6.63069     -168.605 
1.88873e-05      6.74496     -169.406 
3.54436e-05      6.71804     -169.710 
8.71310e-05      7.02513     -169.170 
6.69512e-05      6.62288     -168.503 
1.70675e-05      6.71626     -169.794 
9.76489e-05      7.03683     -169.105 
4.92843e-05      6.71450     -169.878 
0.000229390      6.61308     -168.486 
7.58569e-05      6.71275     -169.962 
0.000157313      7.04665     -169.121 
5.58093e-05      6.71101     -170.046 
0.000170578      7.05647     -169.136 
5.18404e-05      6.70116     -170.032 
2.47677e-05      7.06629     -169.151 
0.000506160      6.60529     -168.384 
0.000422310      7.18853     -169.581 
0.000158545      6.69944     -170.116 
0.000161748      6.69773     -170.200 
0.000306794      7.19034     -169.503 
0.000160148      6.69604     -170.284 
6.33866e-05      7.04855     -169.041 
0.000118266      6.69436     -170.369 
1.05045e-05      6.59549     -168.366 
9.03833e-05      6.59751     -168.281 
0.00172984      7.26909      144.801 
0.00231682      2.53789      94.5199 
-0.00227024      8.49259      145.992 
0.000953443      8.23119      179.025 
0.00105597      2.74711      128.497 
0.000397195      6.67800     -143.096 
0.000406954      5.67556      147.374 
0.000478605      6.68600     -143.147 
0.00202617      8.32942     -142.071 
0.000801419      7.10710      166.824 
0.000632883      1.70461      19.1790 
0.000367569      2.73386      101.392 
-0.000532724      1.36015     -126.027 
-0.000585905      4.29331     -116.863 
-0.00217959      3.39024      117.396 
0.000117112      3.54667      156.398 
0.000559297      6.55276     -137.226 
-3.16524e-05      9.13510      148.154 
3.14788e-05      3.07539     -112.563 
0.000355302      2.44295     -129.685 
0.000237210      3.55584      156.463 
-0.000507029      9.12660      148.121 
0.000332039      7.13730      155.410 
0.000118026      3.07327     -111.975 
0.000415055      4.40095      120.294 
-0.000168244      8.14364      175.634 
-0.000563122      3.64000      112.620 
-5.86791e-05      9.00924     -157.277 
0.000116846      7.92738      157.997 
0.000959823      6.03305      150.290 
0.000193180      3.13102     -91.4641 
0.000281299      8.41121      151.759 
-0.000346651      6.67200      176.563 
-0.00101782      5.30529     -148.018 
0.000287447      8.45819     -143.509 
-0.000139882      6.34054     -138.517 
5.59751e-05      3.07782     -113.150 
-0.000241244      6.49231      173.455 
-0.000191313      8.99468     -157.169 
0.000507081      7.93665      158.024 
0.000663222      4.98663      141.268 
0.000740162      2.68365     -64.3898 
0.000240446      4.93974      145.892 
0.000289272      2.74767      101.760 
-0.000811565      1.93023      89.1095 
-0.000338708      4.34514      71.0647 
0.000537609      2.43658     -129.504 
-0.000392220      4.30223     -116.803 
-0.000531375      6.34894     -138.704 
-0.000434702      4.76783      146.810 
-0.000203241      2.50060     -98.9726 
-0.000319447      4.60783     -72.3122 
-0.000175924      8.13366      175.628 
-5.31429e-05      8.98546     -157.145 
0.000275914      3.70621      136.312 
0.00122683      2.64970      74.2328 
0.000300932      3.11512     -102.609 
-0.00145789      9.30635     -150.377 
0.000816032      3.37120     -144.660 
9.81443e-05      3.08058     -113.736 
-0.000300083      6.68198      176.568 
5.05754e-05      3.13078     -91.2812 
-0.000117250      4.76266     -80.6959 
0.000395834      4.39592      120.181 
-0.000304131      8.97093     -157.036 
0.000220126      3.53351      156.482 
0.000722926      4.94802      145.957 
0.000245170      3.53289      132.132 
0.000143521      8.47640     -143.684 
2.51058e-05      7.08613      158.214 
0.000465396      7.69422     -138.583 
4.83809e-05      5.68938      147.343 
-0.000254138      3.60649     -135.674 
-0.000837101      6.48238      173.445 
9.66687e-05      3.14025     -90.7298 
-4.87808e-05      2.77626     -83.7965 
-0.000159547      3.12541      140.453 
0.000422171      2.74565      101.555 
-2.41982e-05      1.70696      171.917 
-0.000253154      4.34190      71.1895 
-0.00193321      2.77735     -83.5915 
2.38190e-05      7.09542      158.244 
-0.000795495      4.77620      146.876 
-0.000632446      4.61088     -72.1938 
-0.000574861      7.58721      160.681 
-9.82725e-05      3.37557     -132.719 
4.63768e-05      8.19103      179.091 
-0.000236586      2.56070     -156.038 
-4.30629e-05      3.16526      147.515 
-0.000155887      7.66082      153.234 
0.000136558      3.10757     -102.829 
-0.000454558      8.98454      148.008 
0.000364515      7.30021      147.986 
-0.00113001      1.62635     -8.13010 
0.000111778      3.14014     -90.5474 
-4.41035e-05      1.70558      172.250 
-0.000112648      6.69003      179.829 
0.000665643      1.52453      7.91750 
-0.000223955      2.50218     -99.1988 
-0.000155476      5.59521      140.221 
-8.94931e-05      8.12294      175.693 
0.000111047      3.09142     -133.296 
0.000218255      2.64068      111.318 
0.000519026      7.14639      155.443 
-0.000445038      7.57446      160.728 
4.51599e-05      5.62822      145.350 
-0.000314248      7.81041      142.543 
-0.000127523      5.10098      88.8767 
-0.000110733      7.90247      150.678 
0.000252441      3.51147      124.324 
0.000914917      7.27727      144.847 
0.000165970      1.19419      117.423 
4.40937e-05      3.71313      136.200 
0.000239888      6.54542     -137.167 
0.000256033      2.20871      125.417 
-0.000288655      3.36880     -132.594 
-0.000518050      2.45459     -49.6266 
-4.35639e-05      1.36605     -126.367 
-6.53031e-05      3.31622      127.526 
-0.000121755      5.72766      170.554 
-0.000127197      3.14460     -129.969 
0.000656844      3.10981     -103.008 
4.27188e-05      3.08462     -113.906 
0.000329671      5.63645      145.408 
-0.000194086      2.91625      74.4864 
-0.000189782      4.33869      71.3145 
0.000180043      7.93292      158.091 
-0.000105241      1.53154      139.236 
-4.26384e-05      8.20959     -146.174 
-0.000473547      3.59935     -135.563 
-0.000234674      6.71007      179.744 
7.83783e-05      8.20103      179.092 
-0.000330350      8.11296      175.688 
8.41273e-05      7.69335     -138.478 
-0.000314995      7.91119      150.713 
0.000151378      7.09736      166.806 
0.000266568      3.15002     -89.8181 
-0.000272098      5.60290      140.286 
-0.000765704      9.29766     -150.347 
0.000510791      3.09188     -133.034 
-0.000661663      1.49933      46.0809 
-4.14541e-05      2.88877     -156.541 
-0.000170305      3.31014      127.389 
-0.000105264      4.29784     -116.982 
-8.04732e-05      8.21789     -146.213 
0.000803337      7.70084     -138.527 
-0.000320222      7.65189      153.201 
-9.82143e-05      6.35897     -147.784 
8.03781e-05      2.63706      111.116 
-0.000270457      6.35645     -138.763 
5.90785e-05      8.40240      151.727 
-3.97574e-05      7.65429      172.569 
2.03409e-05      1.18962      116.996 
4.04058e-05      5.02410      170.838 
-0.000382777      1.53912      139.479 
0.000230400      1.72818      138.284 
-2.01957e-05      2.26173      84.1634 
2.01504e-05      5.04668      175.340 
-0.000261335      4.33549      71.4397 
0.000562823      2.67032     -64.4905 
0.000157188      8.94497     -152.719 
0.000883353      9.02518     -161.726 
-0.000272531      5.53001      148.006 
0.000412901      5.01423      170.819 
1.99054e-05      8.37096      149.330 
0.000296824      6.71662     -158.056 
0.000262072      8.37506     -149.822 
-0.000146102      7.65301      172.643 
-0.000293452      3.15227     -129.852 
-1.97705e-05      3.11771      140.336 
0.000114234      5.09559      132.614 
-0.000170856      5.40490     -167.172 
0.000110514      3.50538      131.878 
7.63768e-05      3.83818     -149.292 
-1.95505e-05      4.77579     -80.4785 
0.000265063      2.62057      110.786 
-0.000215928      5.10119      88.7644 
-0.000211898      2.55157     -155.946 
0.000259951      7.68399      151.300 
-7.58628e-05      2.87251      144.207 
-7.54491e-05      8.22346     -146.155 
0.000326019      2.38479     -101.121 
-7.53265e-05      8.69341     -149.364 
-0.000124793      3.88928     -110.625 
-1.91593e-05      2.25282      83.8845 
1.90964e-05      3.08367     -114.321 
0.000124567      9.41370      150.957 
-5.56757e-05      3.80802      160.518 
-0.000142273      7.77643      143.734 
-1.89507e-05      3.61199     -91.9039 
0.000443410      5.99908      146.283 
-0.000119926      4.77746     -80.3602 
-0.000334381      8.09227      175.748 
-0.000250416      6.11739      172.863 
0.000127966      6.02934      150.161 
-0.000262714      7.08467      137.460 
0.000457268      2.06613      63.5590 
3.58412e-05      4.05879      135.000 
-7.18091e-05      8.67329     -173.645 
-3.70869e-05      4.30109      74.7682 
0.000309370      6.27252      135.711 
-3.69025e-05      7.71639     -172.479 
8.20351e-05      4.99444      141.340 
-0.000122114      2.86440      144.090 
-7.26462e-05      7.07011     -143.454 
3.65691e-05      2.43167     -128.991 
3.49994e-05      3.49757      124.281 
-0.000481039      8.69692     -149.454 
0.000139781      3.84678     -149.368 
0.000841312      7.49993      153.811 
-5.43191e-05      3.69920     -106.328 
-0.000800442      4.29848      74.8969 
-0.000384045      7.33573      177.734 
-0.000226387      4.11896     -129.681 
0.000725661      5.06131      129.951 
8.77948e-05      8.41595      151.699 
0.000366245      1.73566      138.504 
-0.000104910      8.23177     -146.194 
-0.000280799      7.73437      145.057 
-1.81771e-05      2.86667      144.369 
-0.000387057      7.72630     -172.489 
1.80643e-05      1.94010      52.5394 
-0.000301974      1.70414      127.610 
0.000129582      5.08882      132.531 
0.000452273      1.94445      51.8924 
0.000165257      8.85936      153.232 
0.000135039      2.43797     -129.174 
5.17151e-05      6.64850     -168.284 
-0.000103122      5.31377     -148.075 
-6.77148e-05      3.79859      160.468 
-0.000538006      7.06416     -143.519 
-9.92148e-05      3.70203     -106.477 
-0.000103958      2.46108     -49.4492 
0.000377890      5.00849      141.322 
-0.000108653      2.49393     -99.4623 
0.000231798      2.21452      125.628 
0.000237160      6.36793      168.496 
0.000166335      5.21862     -72.6067 
8.41692e-05      2.89834      121.167 
-0.000128449      4.28880     -116.744 
-1.74510e-05      4.24867      131.947 
0.000211633      8.36642     -149.788 
0.000133171      5.21500      142.009 
1.73792e-05      7.10270      152.497 
0.000144649      6.53809     -137.107 
-0.000163859      5.61060      140.351 
-9.60488e-05      2.91894      74.2973 
-0.000291490      5.52153      147.951 
-0.000193448      8.18213     -151.054 
0.000158523      3.16025     -89.2748 
6.46915e-05      7.11158      152.534 
-6.63060e-05      4.67472     -117.936 
0.00116769      2.65663      74.4990 
-0.000465982      2.47518     -49.4238 
7.98511e-05      6.24052     -173.467 
6.50743e-05      6.25448     -155.033 
1.67770e-05      4.95871     -79.7778 
3.07436e-05      7.62877      159.593 
0.000170026      7.84618     -173.781 
-0.000571683      6.10747      172.852 
-0.000478833      4.64022     -130.280 
-0.000144707      5.10141      88.6521 
-0.000203991      6.72007      179.744 
-0.000264578      4.93794     -93.2506 
0.000121901      7.94220      158.118 
-0.000324730      4.23455      131.937 
1.66432e-05      7.61883     -171.242 
0.000109876      2.75951      101.921 
0.000192331      3.84329     -149.164 
0.000154915      7.92571     -139.759 
-0.000232795      7.64309      172.633 
-0.000829709      1.81207      37.3758 
0.000271573      7.46006      179.770 
-0.000454525      6.36475      154.401 
0.000120887      8.23849      154.244 
-3.26515e-05      8.07708      144.066 
-4.66453e-05      6.45480      158.363 
-0.000489385      4.08344      68.1465 
-9.09907e-05      8.96563     -156.952 
-1.63654e-05      5.31907     -147.983 
-0.000300581      3.86122      97.2907 
-0.000262744      4.81918      132.730 
-4.77444e-05      8.24008     -146.233 
-6.38521e-05      7.09143      137.400 
1.62373e-05      3.49871      131.756 
3.14355e-05      2.20411      119.938 
0.000212533      3.10413     -92.9546 
0.000244562      3.74646      130.236 
0.000304891      2.91496     -56.4735 
1.60941e-05      5.05747      175.236 
0.000299974      5.22162     -72.5020 
-0.000198417      4.68824     -117.986 
3.17053e-05      9.40496      150.928 
-1.59803e-05      8.47723      177.634 
-8.97175e-05      8.06311      144.082 
-3.16698e-05      8.98539      152.636 
-0.000203290      7.05612     -143.471 
0.000186782      5.64469      145.465 
-3.15535e-05     0.650000      36.8699 
3.08652e-05      4.04931      81.0494 
-0.000193997      4.12535     -129.788 
3.05744e-05      4.94243      146.053 
-7.53228e-05      5.32755     -148.040 
-4.60739e-05      3.78917      160.417 
4.64418e-05      6.92605     -136.814 
0.000253366      9.66224      148.975 
-0.000289498      7.91991      150.749 
-7.65982e-05      8.99428      152.666 
-0.000342633      1.69806      127.342 
-0.000105744      7.07730      137.405 
-0.000120434     0.664003      37.0425 
2.98526e-05      5.22288      142.077 
-0.000292566      5.11141      88.6547 
0.000155723      5.02570      170.725 
-0.000496191      1.49241      46.3575 
7.29262e-05      3.80926      112.863 
-0.000412324      6.47244      173.435 
0.000159240      2.66918     -132.115 
-5.97999e-05      8.24839     -146.271 
-1.53031e-05      7.17908      165.809 
0.000100121      2.53870      94.7449 
-4.54327e-05      3.72700      121.728 
-0.000152726      8.18697     -150.993 
5.90622e-05      6.24541     -154.994 
0.000167027      8.85043      153.203 
3.00603e-05      9.41856      150.904 
0.000201867      5.85822     -122.876 
0.000136751      5.38075      176.377 
0.000457370      2.88901      116.742 
-0.000112128      8.43851      157.568 
8.75157e-05      6.35813      168.478 
-0.000137775      1.54674      139.720 
-0.000263456      3.29055      111.575 
-2.98010e-05      2.54244     -155.854 
-4.47458e-05      4.79070     -80.1444 
-2.97752e-05      2.85631      143.973 
0.000194375      6.92651     -136.931 
-0.000641894      7.32574      177.731 
-5.80205e-05      9.09077      157.356 
-7.22321e-05      7.16939      165.789 
0.000315287      5.03036      141.376 
0.000125488      6.72590     -158.088 
0.000124040      4.05844     -131.704 
-0.000154803      5.07824      94.8573 
-0.000321927      3.74604      121.908 
-0.000248315      8.99887      152.609 
-5.75213e-05      6.34804     -138.576 
8.47857e-05      2.61704      110.582 
-1.48557e-05      8.46724      177.631 
-2.95484e-05      9.11811      148.088 
8.70559e-05      1.37306     -34.6160 
0.000198182      7.70833     -138.576 
-1.48163e-05      3.78312      160.224 
0.000187558      5.21776     -161.565 
4.32786e-05      6.18935     -160.658 
0.000817035      9.75273      151.122 
9.78710e-05      2.77348      102.282 
5.71741e-05      6.53077     -137.048 
-1.46699e-05      4.28431     -116.625 
-0.000179351     0.672012      36.5288 
-7.16486e-05      3.77371      160.173 
0.000474804      2.92330     -56.5817 
0.000200762      3.37936     -144.758 
-6.99587e-05      1.38177      92.9038 
-0.000236188      3.09317      87.4058 
-7.15465e-05      9.14038      148.101 
-0.000190874      7.08407      137.345 
-0.000253689      5.96112     -135.476 
-1.44463e-05      1.77370      172.875 
-5.38106e-05      8.25671     -146.310 
0.000859752      3.23736     -60.5844 
7.01331e-05      7.91808     -139.713 
0.000474554      5.85581     -122.659 
-0.000107138      4.29325     -116.565 
-0.000189234      4.69294     -118.094 
-1.42373e-05      8.45724      177.628 
-0.000433162      4.07973      68.2768 
0.000137006      3.11315     -92.5775 
0.000906852      9.01568     -161.706 
4.14158e-05      4.96412     -79.4371 
-2.78358e-05      4.79242     -80.0266 
4.00340e-05      5.08146      132.607 
-0.000406072      2.85044      144.135 
-9.43525e-05      1.51743     -139.276 
0.000133042      6.05826      175.551 
2.78511e-05      1.35915     -34.5085 
0.000207348      1.35093     -34.7488 
-0.000179228      4.94793     -93.2441 
-4.04688e-05      4.76967      168.266 
-0.000376026      9.13189      148.068 
5.43565e-05      5.05223      141.429 
-6.69702e-05      7.15969      165.770 
0.000336224      1.95064      51.6613 
-1.38254e-05      3.76431      160.121 
0.000220385      4.12438      115.260 
1.38011e-05      7.85612     -173.789 
-5.29788e-05      4.55290      117.184 
-0.000175902      8.98014     -157.061 
1.37325e-05      2.38673     -101.357 
-0.000382437      5.11165      88.5427 
-5.41696e-05      3.71489      159.516 
-0.000151342      8.97894     -160.617 
-7.67213e-05      8.26503     -146.348 
-0.00119759      1.82003      37.1847 
0.000390258      7.47006      179.770 
-9.06695e-05     0.648845      155.410 
-5.31017e-05      3.65274      70.8210 
5.37112e-05      1.74316      138.721 
0.000113644      6.53028     -136.924 
0.000128705      3.00980      63.7755 
0.000169168      7.11217      161.132 
-5.28317e-05      6.45849      158.281 
-0.000143040      9.10000      157.380 
-0.000143417      5.78157      120.335 
-0.000115245      1.64149     -140.686 
-0.000151833      3.85996      97.1434 
-0.000648537      7.73621     -172.498 
5.13103e-05      5.99354      146.363 
0.000262710      2.66248     -131.955 
0.000179472      7.61184      156.871 
2.62697e-05      6.18324     -160.539 
0.000126818      5.60960      122.330 
-0.000240273      5.43670      129.252 
6.55115e-05      7.91045     -139.666 
-0.000277057      3.70552      159.462 
5.07197e-05      3.16014     -89.4561 
1.34058e-05      7.71495     -138.521 
0.000290276      4.93325      71.9323 
0.00265187      8.33731     -142.113 
0.000127896      3.11207     -103.188 
2.64984e-05      7.71583     -138.625 
-6.39945e-05      1.38232      93.3178 
0.000234250      7.59090      148.467 
3.89024e-05      4.96596     -79.3236 
0.000101632      3.11362     -92.7613 
-0.000349186      5.07909      94.9697 
-0.000659889      7.49801      143.023 
-0.000311869      3.09364      87.2208 
-0.000134685      4.77074      146.976 
0.000115219      7.72245     -138.570 
1.31141e-05      3.09871     -133.169 
7.41064e-05      6.28685     -135.838 
8.69712e-05      2.53955      94.9697 
-0.000443497      4.81184      132.810 
-0.000159754      6.09755      172.840 
6.10557e-05      2.61354      110.376 
-0.000176432     0.686003      36.7028 
-7.49193e-05      4.80755     -79.6952 
-3.70174e-05      5.61830      140.416 
0.000122612      7.12404      155.450 
0.000147340      3.75410      130.138 
-1.29158e-05      6.46778      158.314 
-0.000624222      9.00775      152.638 
-0.000406402      5.17818     -77.7352 
-1.28587e-05      5.41465     -167.196 
-1.28535e-05      4.63108     -91.2373 
2.54137e-05      1.73658      138.969 
2.54193e-05      7.95148      158.145 
2.55586e-05      6.97450      133.490 
0.000153230      7.59943      148.506 
-2.53937e-05      7.15000      165.750 
0.000309209      5.65293      145.523 
-3.75180e-05      4.75988      168.242 
-5.98928e-05      2.92857      74.3502 
-4.97555e-05      6.33306     -138.457 
4.71518e-05      6.27968      135.774 
-6.99672e-05      6.73007      179.745 
0.000345731      9.48735     -154.596 
-0.000149371      8.19860      152.466 
-3.35005e-05      3.15785      104.300 
3.75928e-05      3.82294      87.7513 
6.23506e-05      4.96783     -79.2103 
-0.000427362      3.48834     -63.0677 
9.83667e-05      7.90283     -139.619 
0.000188308      5.22463     -72.3974 
-8.55842e-05      4.64130     -91.3580 
-7.18029e-05      3.65604      70.6730 
0.000109877      9.67081      149.006 
-0.000277650      4.69766     -118.202 
-9.77187e-05      8.18973      152.434 
0.000211506      6.96762      133.430 
-2.48847e-05      5.73590      170.669 
1.25538e-05      7.52110      168.884 
1.25411e-05      4.70918     -155.939 
-9.52716e-05      5.77652      120.249 
-0.000247687      5.09565     -177.300 
-6.03546e-05      3.38237     -132.843 
-3.58364e-05      3.49017      75.5656 
-0.000105062      8.51476      146.011 
-2.45922e-05      1.50987     -139.028 
0.000109284      7.72995     -138.619 
-0.000356182      6.46137      173.513 
0.000125940      4.71832     -155.988 
6.03211e-05      6.38555      168.620 
0.000164414      3.98207     -136.323 
-0.000179752      5.95399     -135.408 
-0.000153187      4.29588      75.0256 
5.90261e-05      2.17187     -119.516 
0.000414532      5.09318      101.553 
7.87538e-05      3.82335      87.6016 
0.000184614      3.12231     -92.2026 
5.99380e-05      4.96971     -79.0971 
-0.000194942      8.92341     -151.338 
-1.21663e-05      8.46081      157.557 
0.000464165      7.62104      156.900 
3.54923e-05      5.03557      170.743 
-0.000472028      8.45005     -179.797 
8.12066e-05      5.39073      176.384 
4.75437e-05      3.38754     -144.856 
-2.40065e-05      7.14031      165.730 
-6.94807e-05     0.694046      36.2095 
0.000218312      3.11955     -102.967 
-3.51406e-05     0.657951      155.772 
5.84892e-05      5.60426      122.244 
6.97105e-05      7.88965      163.127 
7.91595e-05      5.07469      132.524 
-1.19959e-05      5.74576      170.685 
-8.12397e-05      4.80935     -79.5779 
-0.000131967      1.37179      92.9250 
0.000591902      4.93637      71.8220 
-0.000134176      5.43038      129.171 
0.000114900      1.32880     -34.8860 
-0.000231475      1.63377     -140.464 
-5.68485e-05      6.32475     -138.269 
1.18543e-05      4.94054      103.699 
-1.18551e-05      4.75009      168.217 
-0.000316647      5.11192      88.4306 
5.83563e-05      7.89522     -139.572 
0.000170725      3.01423      63.6050 
-0.000510227     0.396232     -47.0454 
0.000103861      7.73745     -138.668 
-0.000268931      1.07564     -174.130 
0.000198944      9.68453      148.986 
0.000100941      3.76056      130.254 
-2.31651e-05      7.13309      165.633 
-6.91626e-05      7.07085      139.416 
5.61845e-05      6.27236     -135.581 
0.000335640      9.49638     -154.622 
-0.000328705      4.60443     -72.0373 
-5.65835e-05      4.64155     -91.4815 
0.000130966      5.12337     -157.991 
-0.000227664      8.98837     -160.638 
5.65855e-05      6.39535      168.637 
2.28912e-05      2.54043      95.1944 
3.43900e-05      4.97161     -78.9839 
0.000354163      2.66177     -132.259 
0.000185946      8.36236      149.295 
7.85426e-05      3.85701     -120.887 
2.30489e-05      7.08351      155.389 
-1.15643e-05      1.92042      88.8065 
4.45247e-05      6.52297     -136.864 
0.000131182      5.01630      141.394 
1.14774e-05      5.22725     -161.600 
-8.69391e-05      4.95791     -93.2375 
6.74825e-05      7.88761     -139.525 
-0.000162298      3.65936      70.5252 
-2.24951e-05      3.38917     -132.967 
2.25015e-05      3.38999     -145.091 
8.87095e-05      7.09260      155.422 
-7.74343e-05      7.16561      164.955 
0.000632415      9.76149      151.151 
0.000161277      5.59580      122.298 
-0.000147840      5.09030      121.504 
-0.000257784      7.07845      139.469 
-9.23514e-05      1.62496     -7.78105 
0.000121141      7.74497     -138.717 
-5.47490e-05      4.29331      75.1545 
5.38447e-05      2.34719     -111.756 
-0.000103621      4.76236      146.911 
-2.17671e-05      4.81116     -79.4608 
-1.11133e-05      8.50647      145.974 
0.000119250      2.65932      74.2914 
7.96901e-05      2.17083     -118.926 
3.29299e-05      7.24145      135.783 
6.42836e-05      7.88008      163.106 
1.10687e-05      2.90353      121.336 
-6.37966e-05      3.28688      111.413 
0.000229360      1.95686      51.4316 
0.000371487      7.66599      138.596 
-4.37557e-05      5.13749     -80.7027 
5.44956e-05      7.88001     -139.478 
-2.17719e-05      8.27058     -146.291 
-0.000103650      9.12231      157.370 
-4.24469e-05      3.39485      117.546 
-0.000292513      7.56502      160.703 
9.57913e-05      1.30668     -35.0279 
0.00104592      8.34521     -142.155 
8.46188e-05      5.22767     -72.2929 
-4.26996e-05      3.39600     -133.091 
5.33873e-05      6.40515      168.655 
-4.29839e-05      4.13175     -129.894 
3.09235e-05      2.61008      110.171 
1.08596e-05      7.08992      166.709 
5.29216e-05      3.39819     -145.188 
-1.08558e-05      4.74031      168.192 
7.33002e-05      6.96075      133.370 
-6.11631e-05      3.49986      75.6064 
-2.11441e-05      1.92065      88.5083 
-5.25438e-05      4.64182     -91.6048 
0.000144074      3.13160     -91.8299 
-0.000292162      5.11220      88.3186 
0.000207248      3.86215     -121.015 
-0.000115383      5.13588     -80.8128 
0.000181484      7.24843      135.727 
2.13029e-05      6.37003     -152.107 
0.000568405      3.24228     -60.4305 
-0.000159443      3.09414      87.0359 
6.25072e-05      5.40071      176.391 
5.30733e-05      7.87241     -139.430 
-8.07181e-05      3.69616      159.408 
0.000871448      4.57086     -81.4444 
0.000128972      4.51338     -139.853 
8.43165e-05      7.75248     -138.765 
0.000108755      2.07060      63.3112 
0.000132359      7.06116      155.395 
-0.000115080      8.98506     -160.698 
1.06587e-05      4.97547     -78.7578 
9.18547e-05      5.06794      132.441 
-4.19248e-05     0.700000      36.8699 
-0.000972998      5.18032     -77.6271 
-0.000619975      9.30141     -150.431 
-2.11284e-05      8.26226     -146.252 
-7.16271e-05      7.16302      165.033 
-9.07661e-05      4.28622      74.9911 
0.000144047      1.08407      37.5041 
-0.000555894      5.07997      95.0821 
-0.000521563      3.47490     -63.1400 
0.000307855      8.79386     -168.588 
0.000171745      3.24524     -80.4216 
-1.05640e-05      3.16033      104.476 
-0.000416704      8.93619     -151.456 
1.05485e-05      7.08018      166.690 
-3.12314e-05      4.43879     -127.954 
-1.05420e-05      7.17527      164.976 
-0.000189113      6.46251      173.425 
-7.12696e-05      4.13943     -129.806 
0.000246278      2.66627      74.5564 
-2.08052e-05      4.81300     -79.3438 
4.05985e-05      4.12866      115.386 
0.000852336      4.93000      71.6753 
1.04795e-05      1.16765      118.101 
-0.000379217      8.44005     -179.796 
0.000990757      9.00619     -161.686 
3.11364e-05      7.86481     -139.383 
-7.08611e-05      7.92864      150.784 
2.06740e-05      6.41496      168.673 
-4.08054e-05      8.25395     -146.214 
2.06186e-05      6.37887     -152.149 
-4.10487e-05      4.29773     -116.684 
3.08886e-05      5.66117      145.580 
-0.000106216      3.61312     -69.7595 
-3.06714e-05      3.40284     -133.214 
-5.95806e-05      8.17624      152.463 
5.12270e-05      7.76001     -138.814 
-1.02922e-05      4.21085     -168.076 
0.000118966      1.29850     -35.2812 
5.39516e-05      4.29745     -102.225 
0.000138088      9.69310      149.016 
-0.000258369      4.39090     -120.069 
-0.000354875     0.708026      36.3843 
3.06765e-05      7.85723     -139.335 
-0.000237181      9.02123      152.611 
9.92325e-05      3.40641     -145.284 
-9.91274e-05      6.44063     -179.199 
1.02414e-05      8.22049      154.183 
8.04728e-05      5.23072     -72.1886 
-6.92784e-05      4.26878     -174.623 
-0.000158752      3.66270      70.3777 
-9.93452e-05      8.31655     -177.726 
-0.000188157      7.07956      139.583 
0.000433631      4.29958     -102.355 
-4.99248e-05      3.38136      117.474 
-0.000148332      5.14576     -80.8306 
-3.02717e-05      4.44495     -128.056 
-9.65659e-05      3.17002      104.431 
0.000295077      2.81178      70.4695 
2.01670e-05      7.88675      163.196 
0.000191081      2.89795      116.653 
6.95197e-05      5.59046      122.212 
3.03130e-05      5.63902      145.549 
6.90463e-05      6.42281      168.778 
0.000126779      5.30416      131.867 
-0.000117201      4.65211     -91.7245 
1.01045e-05      5.11410     -157.949 
7.94899e-05      7.84964     -139.288 
-0.000117060      4.95994     -111.651 
-1.99500e-05      3.74076      121.778 
-0.000331026      5.11250      88.2066 
-0.000409380      5.36717     -72.5441 
2.00886e-05      5.11963     -158.095 
4.67510e-05      6.37472     -152.028 
3.90995e-05      6.28685      135.838 
3.98215e-05      7.76753     -138.863 
5.90841e-05      6.96116      133.254 
0.000348594      8.35173      178.834 
4.84209e-05      4.96961     -78.5092 
-3.92117e-05      1.37233      93.3419 
-1.00109e-05      4.81486     -79.2268 
8.47994e-05      2.33790     -111.847 
-8.60432e-05      5.94697     -135.477 
-6.74361e-05      4.28364      75.1203 
0.000196902      5.64727      145.606 
0.000256284      1.07615      37.8283 
6.88707e-05      2.65505     -132.099 
-1.98437e-05      5.62001     -126.972 
0.000602553      9.77507      151.128 
-2.96123e-05      4.45112     -128.157 
0.000162366      5.11035     -158.053 
0.000338773      1.96311      51.2034 
9.92273e-06      8.42229      170.225 
-2.93073e-05      1.62607     -140.240 
2.93379e-05      7.87718      163.175 
-6.85227e-05      7.48401      143.038 
-1.96786e-05      5.51596      149.856 
0.000209290      7.84207     -139.240 
-9.27068e-05      5.08509      121.408 
-0.000105304      2.77849     -83.3865 
0.000318435      5.23378     -72.0843 
-2.82910e-05      4.81674     -79.1100 
9.82597e-06      7.77507     -138.911 
-4.79767e-05      5.61400     -126.890 
-0.000247462      5.04874      73.0725 
6.67763e-05      8.34173      178.832 
0.000214503      3.24359     -80.5958 
9.76419e-06      3.93103     -100.109 
-1.94684e-05      4.74342      87.8253 
-0.000185690      4.17173      77.9628 
-2.90870e-05      4.45731     -128.258 
1.93450e-05      2.51454      83.8359 
2.86293e-05      5.40135      176.285 
-9.70929e-06      3.40969     -133.336 
2.90030e-05      2.66113     -132.563 
-9.71074e-06      1.08559     -174.184 
-2.87958e-05      3.75981      121.957 
0.000174550      3.93280     -100.253 
-9.35791e-05      3.38599      117.625 
0.000395470      7.67349      138.645 
-9.68806e-06      3.28325      111.251 
-4.79230e-05      4.28879     -116.446 
9.38127e-05      5.06120      132.357 
-9.68098e-06      4.96790     -93.2310 
-9.66297e-06      9.51504     -148.582 
0.000112156      4.88467      166.021 
-0.000155673      9.00389     -157.194 
-4.69964e-05      8.18511      152.496 
-0.000277611      7.49200      143.084 
9.44292e-05      1.06231      157.297 
2.83935e-05      3.82378      87.4519 
-3.75297e-05      7.92376      150.847 
-9.63012e-06      1.08462     -174.710 
0.000229809      7.63024      156.930 
1.90583e-05      5.85042     -122.576 
5.67388e-05      5.58514      122.125 
0.000324237      4.89124      88.7114 
-6.62518e-05      4.74305      87.9460 
-0.000230713      8.30696     -177.654 
2.85518e-05      7.33361     -178.203 
0.000274046      2.65437     -132.404 
-5.61592e-05      1.09458     -174.758 
-0.000112624      3.66007      70.0303 
9.57842e-06      2.17002     -118.337 
-2.85938e-05      4.46351     -128.359 
7.52864e-05      3.41463     -145.379 
-9.57476e-06      3.41656     -133.458 
-9.57329e-06      7.17268      165.053 
1.90120e-05      6.95431      133.194 
-0.000112304      5.14417     -80.9405 
-0.000270908      9.52691     -148.696 
-1.86776e-05      4.75399      146.845 
-0.000199532      6.43063     -179.198 
-9.95297e-05      9.10923      157.404 
-0.000323028      8.43009     -179.728 
-9.53708e-06      4.54834      117.072 
-1.90013e-05      7.08834      139.749 
-9.52236e-06      4.95626     -111.544 
-3.67069e-05      5.51094      149.946 
6.49206e-05      6.43262      168.795 
0.000197069      1.27640     -35.4333 
-0.000145002      9.03011      152.640 
6.42655e-05      3.13193     -92.0128 
-8.29713e-05      7.32615      177.653 
9.03991e-05      3.01869      63.4349 
-0.000163582      4.95435     -111.801 
9.28974e-05      2.44266      69.6361 
-3.76172e-05      7.09717      139.915 
-4.63902e-05      7.11872      165.437 
-0.000280638      9.25342      152.798 
9.42815e-06      2.65686     -59.9609 
1.86122e-05      2.51563      83.6095 
-2.76561e-05      4.14584     -129.912 
-3.73339e-05      4.28434     -116.326 
-0.000118114      5.10564     -177.306 
-3.72819e-05      4.46972     -128.460 
-0.000559714      5.11283      88.0946 
3.71910e-05      7.34330     -178.283 
9.15644e-05      7.25559      135.782 
-3.65630e-05      3.75453      121.827 
-9.96510e-05      1.36180      92.9464 
-7.34785e-05      4.65242     -91.8476 
-4.61599e-05      4.54380      116.960 
4.54228e-05      6.99998     -164.336 
-0.000351303      7.10606      140.081 
-6.46375e-05      9.23691     -155.571 
-8.97202e-05      3.10413      87.0454 
0.000727505      8.79585     -168.524 
1.86029e-05      6.95478      133.077 
2.78332e-05      5.84504     -122.494 
-5.43115e-05      4.07044      68.2247 
-1.85631e-05      4.26973     -174.490 
0.000299389      3.24723     -60.2770 
-2.74073e-05      3.50236      75.4479 
-9.31305e-06      2.01189      58.2059 
5.46432e-05      5.29749      131.786 
8.12285e-05      4.13087     -140.994 
-5.52609e-05      7.61999     -170.253 
1.84397e-05      9.70167      149.046 
-1.84086e-05      1.50629      45.8069 
0.00136815      4.92687      71.7857 
9.25530e-06      7.07025      155.429 
-0.000233239      4.72697     -97.1701 
0.000465053      5.09519      101.663 
0.000107081      6.29403      135.901 
-5.44750e-05      4.74270      88.0667 
0.000168344      7.33330     -178.281 
0.000881637      7.83449     -139.192 
7.24578e-05      5.57983      122.038 
-0.000330621      5.06123      72.9971 
-9.22804e-06      4.96734     -93.1158 
4.56188e-05      6.94795      133.017 
0.000195886      1.05309      157.087 
-0.00108767      9.29271     -150.400 
-5.41877e-05      4.27992     -116.206 
-0.000187850      4.34753      84.8533 
-2.74326e-05      2.76632     -83.7742 
-1.83062e-05      4.47595     -128.560 
1.83121e-05      3.42286     -145.474 
-1.81426e-05      4.25978     -174.477 
2.72290e-05      5.83744     -122.193 
-8.08125e-05      3.66350      69.8833 
-0.000273693      5.14261     -81.0505 
9.69221e-05      3.12930     -102.926 
-0.000239584      7.61830     -170.327 
0.000116492      5.05446      132.274 
-1.77723e-05      7.64181      172.708 
2.70556e-05      7.80526     -139.104 
0.000551849      2.43920      69.8563 
2.69834e-05      9.71540      149.026 
0.000106932      8.49850      167.910 
-0.000133870      9.23195     -155.489 
9.07892e-06      2.16601     -118.695 
-4.51179e-05      8.67373      166.669 
-9.08251e-06      4.48219     -128.660 
2.71367e-05      3.42546     -145.707 
-5.37504e-05      4.81864     -78.9932 
-0.000228178      4.93293      153.902 
0.000245100      5.10662     -158.157 
-2.69110e-05     0.410366     -46.9749 
0.000116449      9.14423     -146.327 
-0.000212144      8.94020     -151.543 
-9.04556e-06      5.60000     -126.870 
0.000115475      1.06212      37.7330 
-9.02595e-06      3.16754      104.256 
0.000124700      1.96939      50.9767 
-0.000484577      3.09808     -69.4007 
-1.78197e-05      4.80451      132.891 
4.48534e-05      6.94165      132.840 
0.00122155      5.22427     -72.0506 
-2.67497e-05      4.48844     -128.759 
-8.81667e-05      6.38412     -150.021 
5.32834e-05      6.44243      168.812 
-2.68488e-05      5.00065      109.631 
9.00077e-06      2.07509      63.6819 
-4.44595e-05      1.10454     -174.806 
0.000396518      9.78383      151.156 
6.21934e-05      3.43373     -145.801 
2.68294e-05      5.83212     -122.110 
0.000191959      3.32006     -118.418 
7.99923e-05      7.26276      135.837 
2.66779e-05      2.33420     -111.619 
3.53008e-05      7.58238      148.427 
-0.000123639      8.68346      166.684 
0.000131429      2.80573      70.2088 
-2.66414e-05      4.65275     -91.9707 
-7.08385e-05      8.29697     -177.651 
-3.49071e-05      2.76742     -83.5684 
-2.66263e-05      4.37175      70.0729 
2.66315e-05      6.93485      132.779 
-0.000567345      8.44009     -179.728 
-0.000105181      7.50000      143.130 
-0.000253078      4.16965      78.0972 
1.77310e-05      2.67591      74.6134 
0.000121680      5.14898      99.3891 
1.77329e-05      5.83000     -121.891 
-0.000122537      2.84508      176.574 
-3.51861e-05      4.60136     -72.1557 
-0.000183387      6.21361      132.652 
-8.87170e-06      7.74475      143.929 
-0.000166060      9.52152      152.951 
7.91435e-05      8.81172     -144.795 
6.15767e-05      5.57453      121.951 
-7.05280e-05      7.75284      143.973 
-2.63115e-05      1.69201      127.073 
-4.40839e-05      4.74237      88.1874 
3.53371e-05      9.14702     -146.414 
-3.51643e-05      5.00402      109.739 
8.84179e-06      8.73628      170.247 
1.76592e-05      9.37488     -149.770 
-1.75884e-05      1.49215      45.8146 
-0.000156937      4.37517      69.9498 
5.28896e-05      6.92864      132.602 
0.000122688      5.82472     -121.807 
0.000402535      3.25592     -60.3643 
-0.000646830      9.11406      161.048 
3.51631e-05      7.81282     -139.152 
-0.000253066      7.10733      140.194 
0.000219530      8.99669     -161.666 
-9.60783e-05      3.47943     -62.9931 
0.000130808      7.62632      156.999 
-7.89143e-05      3.67642      64.2016 
1.75716e-05      2.88461      121.100 
0.000399850      9.77025      151.179 
0.000578388      1.96469      51.6135 
2.62237e-05      5.63337      145.633 
-6.15022e-05      5.08993      95.0721 
0.000304549      9.15535     -146.449 
9.63432e-05      7.26994      135.892 
-3.50280e-05      7.25877     -143.967 
-8.80502e-06      5.11023      119.675 
0.000391261      7.68100      138.695 
-0.000252343      9.24105     -155.515 
-0.000674295      4.92395      153.851 
0.00134314      7.82693     -139.145 
-0.000252650      9.26227     -148.060 
4.37750e-05      9.38352     -149.801 
7.85762e-05      5.04774      132.190 
-1.75583e-05      6.46275     -138.764 
-2.61950e-05      1.36235      93.3665 
0.000208542      8.74613      170.258 
-0.000208957      4.72822     -97.2903 
7.87338e-05      6.92188      132.541 
-1.75068e-05      3.66456      69.3891 
-0.000165036      8.29739     -177.582 
8.77265e-06      2.32863     -111.938 
-8.76509e-06      4.27551     -116.086 
-4.36568e-05      4.74207      88.3082 
-4.37249e-05      5.40196      113.338 
1.74376e-05      3.86731     -121.142 
3.47270e-05      4.50574     -139.771 
0.000286382      1.97091      51.3856 
-0.000564390      5.09083      95.1842 
-7.82355e-05      9.26689      152.771 
-2.61869e-05      1.11364     -175.365 
1.74770e-05      3.44201     -145.894 
-3.49452e-05      7.76316      144.119 
-0.000147780      4.35932      84.6033 
-0.00248286      5.11317      87.9826 
6.96982e-05      3.32483     -118.569 
2.61533e-05      5.57776     -146.851 
-6.95747e-05      9.24453      152.770 
0.000138978      2.32491     -111.710 
-5.21275e-05      6.46935     -138.697 
8.72692e-06      2.87606      121.203 
-5.20886e-05      4.20880      163.718 
3.47990e-05      1.05423      38.0656 
-0.000372858      5.06416      72.8890 
-1.74308e-05      5.11893      119.620 
-8.68695e-05      5.01646      149.448 
-0.000130184      5.91251      139.115 
-0.000130032      8.69319      166.699 
1.73996e-05      6.45224      168.829 
7.81123e-05      5.56925      121.864 
-6.09275e-05      7.75506      144.076 
-0.000285958      5.40593      113.435 
5.21800e-05      6.91512      132.480 
-6.93775e-05     0.714003      37.0304 
-6.95155e-05      3.67679      64.5501 
0.000129969      8.80355     -144.757 
-6.93463e-05      6.39278     -150.066 
4.33710e-05      4.12311     -140.906 
-1.73883e-05      4.99800      109.885 
9.54459e-05      7.27712      135.946 
-4.34321e-05      7.04809      139.258 
-2.60884e-05      5.05693     -99.3319 
3.47010e-05      6.30121      135.964 
0.000121274      9.60277     -150.285 
6.07278e-05      5.81946     -121.724 
-0.000260045      8.94899     -151.573 
0.000501957      8.98720     -161.646 
-8.68911e-06      3.66951      68.7495 
0.000164600      6.90230      132.240 
-1.73628e-05      4.59830     -72.2743 
-5.19703e-05      1.12361     -175.406 
-3.46705e-05      4.74178      88.4290 
1.73375e-05      6.05330     -145.023 
-8.67994e-06      5.08702      121.659 
3.46646e-05      4.29535     -102.095 
-6.06699e-05      9.00777     -157.135 
-0.000121234      7.76541      144.222 
-0.000156023      7.60844     -170.315 
-0.000155841      5.05531     -99.2201 
-2.59708e-05      7.26686     -144.013 
-8.66265e-06      3.66939      67.9086 
-0.000355038      5.14106     -81.1606 
-8.65562e-05      7.04052      139.205 
-5.19515e-05      1.35181      92.9682 
6.05832e-05      4.90102      88.8309 
6.06304e-05      9.89207      148.897 
5.19324e-05      7.12423      153.759 
-5.19424e-05      9.53883     -148.810 
1.73211e-05      2.64764     -132.245 
-8.66912e-06      7.04916      139.372 
-8.66557e-06      4.96364     -111.759 
8.65911e-06      5.56392     -146.881 
-5.19237e-05      1.89552      136.283 
7.78975e-05      3.13683     -102.707 
-6.92127e-05      3.67005      67.0679 
-1.73041e-05      5.00141      109.993 
0.000209454     0.760066    -0.753848 
-1.73117e-05      2.18806      53.5491 
9.51917e-05      5.81749     -121.504 
4.32703e-05      5.03362      132.182 
-1.73127e-05      6.44050     -179.288 
-7.78744e-05      4.71959     -97.4262 
-2.59507e-05      3.68110      64.4095 
-8.65025e-06      5.21239     -103.423 
-0.000112495      5.04647      144.924 
1.72965e-05      1.26827     -35.6952 
0.000103823      7.28431      136.001 
-0.000138517      5.02508      149.506 
-7.78629e-05      2.83510      176.562 
0.000147521      5.56397      121.776 
-2.59921e-05      5.11399      119.523 
-3.45990e-05      5.11383     -109.179 
-0.000330504      9.25800      152.743 
0.000270906      7.34300     -178.361 
0.000381606      9.88351      148.867 
-4.32661e-05      5.12660     -115.165 
-8.65858e-06      5.21008     -103.316 
-8.64519e-06      4.19920      163.680 
2.59682e-05      4.29326     -101.964 
-0.000155881      4.37120      84.3546 
3.46224e-05      2.64700     -132.550 
-5.19852e-05      7.64055      172.782 
-2.59507e-05      3.02513     -77.2041 
4.33600e-05      6.06150     -145.078 
-1.72957e-05      5.21752     -103.184 
-2.59605e-05      7.73753     -172.425 
-8.65423e-05      9.54738     -148.841 
0.000181810      6.89558      132.179 
-0.000112931      4.20202      163.549 
1.73107e-05      9.47832     -154.570 
-0.000147243      9.25015     -155.541 
-0.000139452     0.769675     -155.433 
-0.000155851      7.76769      144.325 
-7.78734e-05      7.03295      139.151 
-3.46170e-05      4.91940      153.695 
9.53153e-05      7.11526      153.723 
-4.33448e-05      7.50800      143.176 
-0.000245794      1.35237      93.3913 
0.000165248      4.90083      88.9477 
0.000903384      9.79259      151.184 
-6.05732e-05      5.21525     -103.077 
-4.32841e-05      3.68155      64.7575 
0.000313832      9.16369     -146.483 
1.73081e-05      4.29120     -101.834 
2.59495e-05      8.12830      147.561 
-9.59672e-05      6.20684      132.584 
-2.59611e-05      2.76856     -83.3627 
0.000426832      7.68852      138.744 
-0.000262485      4.72089     -97.5465 
-4.34470e-05      5.50229      149.893 
-0.000193241      5.10769     -109.322 
0.000539288      4.91737      71.7493 
7.79873e-05      5.81227     -121.420 
-1.73231e-05      4.06116      68.1724 
5.19670e-05      7.29151      136.056 
-0.000148654      4.16760      78.2317 
-0.000200027      5.05372     -99.1082 
-2.59908e-05      3.02293     -77.3890 
8.66033e-06      4.28714     -101.572 
-3.46496e-05      1.88138      136.292 
6.97838e-05      7.63553      157.028 
-0.000166605      1.81816      37.6262 
1.73377e-05      5.87984     -123.555 
8.65716e-06      4.28515     -101.441 
-0.000296547      5.40992      113.532 
0.000104960      3.31531     -118.266 
-0.000149033      8.70293      166.714 
0.000157062      8.79539     -144.720 
-0.000112900      7.02539      139.098 
8.65882e-06      4.28123     -101.179 
-2.61205e-05      1.49215      135.815 
-0.000139944      3.66871      66.7194 
0.000121958      9.86201     -150.342 
-8.66639e-06      4.99890      110.247 
-8.66894e-06      6.47131      173.523 
-1.73280e-05      7.59664      160.706 
1.73686e-05      9.60773     -150.233 
-8.71757e-05      2.82512      176.550 
-0.000236743      9.55594     -148.872 
1.73247e-05      4.27628     -100.101 
4.35227e-05      8.11986      147.523 
0.000210865      4.55950     -81.5500 
3.49273e-05      8.36173      178.835 
5.21780e-05      3.13465     -102.529 
-0.000192115      5.04073      145.017 
-2.60574e-05      5.54437     -135.877 
-8.66967e-06      7.08046     -140.329 
-0.000130987      8.29781     -177.513 
8.66974e-06      7.29126      135.945 
-0.000618178      5.35763     -72.5120 
-6.95079e-05      5.21829     -102.731 
0.000253048      6.88887      132.117 
8.67468e-06      4.49929     -139.868 
4.33860e-05      4.27454     -99.9692 
-0.000297195      7.75957      144.282 
-8.67578e-06      7.07408     -140.391 
7.82629e-05      7.29845      135.999 
-0.000600114      5.15248     -81.0678 
4.34871e-05      5.88537     -123.636 
-6.08708e-05      5.07666      72.8143 
-0.000193369      7.08816     -140.381 
8.67597e-06      4.83440     -142.395 
-8.68033e-06      5.60601     -126.952 
-8.68610e-06      3.38647      118.003 
-0.000159236      1.88862      136.502 
-7.84998e-05      5.03370      149.563 
-3.48623e-05      3.02076     -77.5741 
7.87979e-05      4.84232     -142.467 
-0.000148622      4.38316      84.1073 
8.69063e-06      2.80913      70.0169 
-0.000113608      9.25925     -155.566 
2.61693e-05      5.15062      99.4989 
4.35281e-05      5.80706     -121.336 
4.35258e-05      4.27282     -99.8371 
-4.38498e-05     0.706045      37.5191 
-4.37689e-05      7.58390      160.753 
-2.62081e-05      5.12235     -115.064 
8.70162e-06     0.345398     -22.1094 
7.03843e-05      5.11591     -158.199 
9.64224e-05      7.10629      153.687 
-0.000220362      8.95304     -151.660 
-0.000390848      5.07963      72.7065 
8.79747e-05      8.37263     -178.563 
-3.49916e-05      3.39118      118.152 
8.70536e-06      4.84531      123.723 
1.74330e-05      6.77414     -134.761 
-0.000131527      5.21610     -102.624 
-7.90256e-05      7.64922      172.866 
-0.000117691      4.38005      89.7384 
7.03665e-05     0.336155     -22.7510 
-3.50981e-05      5.53719     -135.805 
7.87052e-05      4.27112     -99.7049 
3.49443e-05      7.30565      136.054 
2.64133e-05      2.08406      63.8038 
-8.72107e-06      3.67267      66.5761 
-1.74622e-05      8.60424     -171.512 
-0.000114204      7.01783      139.044 
4.37382e-05      5.89092     -123.717 
-2.63259e-05      3.68213      65.1053 
-5.28490e-05      8.06487     -152.291 
-5.26644e-05      7.59858     -170.302 
0.000888524      9.87495      148.837 
8.78433e-05      5.81042     -121.201 
-7.91897e-05      8.60277     -171.578 
-0.000255935      5.10078      95.1741 
-0.000220351      9.28402     -150.370 
8.75677e-06      7.30540      135.943 
-8.74924e-06      1.31042      15.9454 
-4.41583e-05      7.51601      143.222 
8.75175e-06      2.81514      70.2777 
8.77028e-06      3.14441     -102.489 
0.000105639      7.31259      135.997 
0.00122220      4.91424      71.8600 
8.76601e-06      6.76710     -134.701 
-6.21585e-05      5.49364      149.841 
0.000177006      4.26945     -99.5726 
-0.000320200      5.04739      149.523 
-0.000535529      5.05215     -98.9962 
0.000226759      5.10499      101.640 
-0.000134466      4.19528      163.379 
9.81336e-05      3.14226     -102.311 
-2.64039e-05      1.30771      15.5241 
-7.95783e-05      7.76186      144.385 
0.000125096      8.74783      170.193 
2.65919e-05      4.85918      123.755 
0.000197152      9.85332     -150.313 
4.41157e-05      5.89647     -123.798 
5.41751e-05      6.77422     -134.641 
8.79241e-06      9.77901      151.207 
-2.64863e-05      3.01863     -77.7594 
6.18719e-05      4.90065      89.0646 
-0.000127694      5.44281     -125.880 
0.000376109      6.88217      132.055 
-0.000125522      4.85074     -131.908 
-8.80302e-06      3.77975     -109.633 
-0.000124428      9.26836     -155.592 
-0.000164142      2.81576      176.335 
-5.30308e-05      4.38420      83.9773 
-8.86881e-05      8.30780     -177.516 
-0.000286705      5.41392      113.629 
3.56911e-05      2.32123     -111.481 
-0.000273027      3.10161     -69.2277 
-0.000187871      9.28036      152.745 
0.000638455      7.69604      138.793 
-0.000357450      5.04893      145.082 
-5.34625e-05      7.11501      140.246 
-3.54420e-05      7.58705     -170.364 
0.000272821      8.78722     -144.682 
-0.000477904      5.21392     -102.517 
-0.000177829      3.67151      66.2276 
-2.67452e-05      1.48499      135.546 
7.13685e-05      7.09733      153.652 
-2.65877e-05      1.29808      15.6422 
1.78614e-05      5.55871      121.689 
0.000359291      9.15817     -146.536 
2.65870e-05      7.31954      135.941 
-8.85967e-06      3.39591      118.301 
0.000144166      5.80525     -121.116 
-3.57189e-05      3.77712     -109.970 
-0.000286859      8.43015     -179.660 
-0.000153422      7.01029      138.991 
3.56089e-05      5.90204     -123.879 
-8.04963e-05      8.61121     -171.653 
-5.38344e-05      7.59335      160.778 
-0.000397874      9.28778     -150.454 
-0.000116158      4.39628      83.7318 
-6.26416e-05      7.75145      144.239 
-6.25910e-05      7.65791      172.949 
5.43402e-05      7.64474      157.057 
-7.16871e-05      1.47122     -110.283 
-0.000109708      8.74098      162.145 
3.58195e-05      4.85026     -142.539 
9.84876e-05      7.32673      135.995 
-6.30004e-05      3.67555      66.0850 
0.000119172      2.43578      70.0772 
-0.000392076      4.87452      158.330 
-0.000225118      5.10170      95.2859 
-8.89540e-06      5.12719     -114.916 
0.000250235      4.91050      89.1832 
4.55194e-05      5.14076      99.5173 
-1.78617e-05      7.91819     -171.942 
-0.000469730      7.75373      144.342 
-2.69109e-05     0.778781     -155.739 
-2.68568e-05      1.29541      15.2163 
-8.91959e-06      3.03053     -77.6147 
-5.39998e-05      7.57719     -170.351 
2.69970e-05      8.38263     -178.564 
-2.70486e-05      3.38711      118.381 
-1.79737e-05     0.698141      38.0189 
4.50447e-05     0.332415     -21.1613 
-5.53970e-05      9.25378     -148.027 
-1.79343e-05      1.83521     -69.5901 
-9.09434e-05      8.72469      166.681 
1.78923e-05      4.26780     -99.4402 
-0.000118098      9.56450     -148.903 
0.000401865      8.79784     -168.460 
4.52310e-05      5.09514      78.9106 
-4.49164e-05      8.31823     -177.451 
0.000176622      7.34272     -178.439 
5.48378e-05      5.12519     -158.240 
-2.76676e-05      9.45709     -155.711 
0.000448803      4.27766     -99.4183 
-0.000120126      7.09586     -140.432 
-2.71464e-05      7.52402      143.267 
6.34078e-05      5.90762     -123.959 
-8.96711e-06      2.85855      144.253 
0.000173408      1.96637      52.0228 
-0.000128223      8.96184     -151.691 
-8.98069e-06      4.16557      78.3664 
-2.71877e-05      3.02840     -77.7995 
-0.000169256      9.55282     -153.918 
-8.97856e-06      4.25660     -72.0758 
-1.80841e-05      8.05602     -152.258 
9.34444e-05      6.76719     -134.581 
7.40110e-05      5.70929     -166.012 
4.53586e-05      2.26416      57.9946 
-3.63654e-05      9.46121     -155.656 
-0.000412546      9.27908     -150.424 
-0.000127314      4.39739      83.6023 
-9.01232e-06      5.53003     -135.733 
-9.00488e-06      1.29283      14.7887 
8.42479e-05      3.97800      106.203 
-6.44011e-05      7.91960     -171.870 
-9.01570e-06      9.27747     -155.617 
-0.000294542      5.16392     -80.9755 
-6.44962e-05      4.72221     -97.6668 
-3.63617e-05      8.55842     -172.750 
-9.02665e-06      7.40827     -139.105 
-1.80843e-05      1.29031      14.3593 
6.36134e-05      7.33393      136.050 
4.56235e-05      7.08837      153.616 
-7.29704e-05      8.32822     -177.454 
9.03509e-06      2.59538     -61.4600 
-9.04464e-06      7.82164      141.958 
7.32177e-05      5.37142     -121.293 
1.84253e-05      4.44204     -68.7495 
-5.46692e-05      5.14628      83.1926 
-3.63797e-05      9.27250     -155.536 
-2.72982e-05      3.77115     -110.165 
-5.50767e-05      7.65669      173.023 
2.73560e-05      4.84418     -142.633 
-5.48532e-05      8.60976     -171.719 
-9.07790e-06      1.28787      13.9283 
-1.81925e-05      1.47472     -110.647 
-9.07371e-06      7.53802      143.252 
2.73089e-05      9.29138      146.635 
-7.39086e-05      5.09825     -109.359 
2.76410e-05      4.56098     -81.4258 
-1.82367e-05      7.12270      140.297 
-7.45639e-05      5.18247     -77.5192 
-9.08921e-06      1.29522      13.3925 
-3.78907e-05      7.40072     -139.054 
-3.70557e-05      1.81893     -70.0707 
-5.58960e-05      7.60279      160.802 
-0.000110131      5.11074      95.1640 
-0.000178212      9.29383      152.718 
-3.66225e-05      1.28550      13.4957 
0.000427010      9.28303      146.601 
-0.000102163      1.46895     -111.150 
-0.000281611      5.41793      113.726 
-0.000151947      7.56733     -170.339 
5.52527e-05      7.34087      135.993 
-0.000218416      1.11830     -77.0822 
-8.36823e-05      9.28160     -155.561 
-0.000361356      5.08261      72.5989 
-1.84474e-05      4.35378      168.742 
0.000389324      6.87547      131.993 
0.000102258      9.84838     -150.363 
-2.76256e-05      5.21177     -102.410 
-5.67686e-05      1.89589      136.710 
-8.45563e-05      7.82780      141.900 
9.51705e-05      4.82673      104.641 
-0.000199756      5.14748      83.0821 
-1.84396e-05      8.51940     -177.309 
9.21198e-06      8.37289     -178.494 
-5.65381e-05      1.34239      93.4166 
-7.57982e-05      3.77461     -110.307 
3.71294e-05      5.35336     -172.702 
-0.000218334      7.00274      138.937 
-2.76969e-05      4.39851      83.4728 
-0.000160052      1.29294      12.9614 
5.59639e-05      5.91321     -124.039 
3.74645e-05      5.09322      79.0210 
1.85680e-05      2.26738      58.3428 
8.50565e-05      8.74954      170.129 
-0.000427044      5.11165      95.2756 
-5.64273e-05      5.21940     -102.279 
3.73284e-05      6.23541     -129.664 
-4.71429e-05      4.85743     -131.996 
5.67491e-05      4.85213     -142.705 
-9.34806e-05      4.41195      83.1005 
8.59982e-05      8.38289     -178.496 
-9.27275e-06      8.54850     -172.742 
0.000131582      7.34807      136.048 
3.75164e-05      5.80009     -121.032 
-1.86069e-05      8.50941     -177.306 
-6.60131e-05      7.10358     -140.484 
-2.81526e-05      3.39187      118.530 
-7.62196e-05      4.20487      163.418 
0.000220172      1.97254      51.7938 
0.000133638      5.36624     -121.202 
-0.000133918      9.55934     -148.954 
-1.88160e-05      4.54881      144.213 
-4.70295e-05      8.61823     -171.795 
2.83563e-05      7.07941      153.580 
-9.34927e-06      8.34865     -177.391 
1.91251e-05      3.26461     -60.4510 
-1.87744e-05      8.49942     -177.303 
9.37076e-06      2.59062     -61.6543 
8.65140e-05      5.13448     -158.281 
8.63581e-05      5.36328     -172.716 
-5.77011e-05      4.34397      168.716 
-2.84437e-05      7.66541      173.107 
9.38173e-06      4.25353     -160.926 
0.000134272      9.83969     -150.335 
-0.000326920      5.17537     -80.8835 
0.000241011      8.77907     -144.644 
-1.89512e-05      8.53985     -172.667 
2.87414e-05      2.26214      58.5584 
-2.86416e-05      8.73442      166.696 
-2.83282e-05      8.35864     -177.394 
-0.000125363      8.97065     -151.721 
-1.91051e-05      7.13040      140.349 
-7.62268e-05      4.41316      82.9716 
1.91148e-05      7.65395      157.086 
-8.68019e-05      5.10158     -109.465 
0.000154678      5.33256      72.6524 
2.85292e-05      4.25973     -161.097 
-7.66398e-05      9.29071     -155.587 
2.84918e-05      4.90787      71.7127 
-0.000106210      1.46328     -111.656 
4.79432e-05      6.22904     -129.594 
-1.90194e-05      8.48943     -177.299 
-4.82293e-05      7.92950     -171.880 
0.000358801      4.90474      71.8236 
9.52745e-06      4.85363      123.657 
-9.52883e-06      7.53204      143.313 
-1.92413e-05      1.66820      125.977 
-0.000203847      7.74561      144.299 
-1.91244e-05      8.47944     -177.296 
0.000125795      7.35527      136.102 
-1.92141e-05      7.65548      173.098 
7.75164e-05      9.86639      148.807 
-2.90885e-05      1.81554     -70.3674 
-3.88102e-05      3.38309      118.610 
3.88643e-05      5.91882     -124.120 
-7.76691e-05      8.61680     -171.860 
6.80338e-05      4.54262      70.0492 
-1.92276e-05      8.46945     -177.293 
5.83262e-05      4.25650     -161.225 
-2.92470e-05      7.59951      160.874 
-8.76459e-05      4.41440      82.8428 
-1.93603e-05      8.39906     -177.339 
-9.65222e-06      8.74405      162.083 
-3.89451e-05      7.81994      141.855 
-7.81307e-05      5.04321      145.176 
-2.90813e-05      1.29074      12.5288 
-8.78940e-05      5.42196      113.823 
-0.000117316      5.22153     -102.386 
-2.91904e-05      8.45946     -177.290 
-9.69421e-06      5.44059     -126.027 
9.70274e-06      5.10495      78.9322 
-4.90004e-05      9.29981     -155.612 
2.94206e-05      6.22267     -129.523 
-1.95874e-05      5.60461      115.468 
1.95621e-05      8.75126      170.064 
-4.88986e-05      5.12070      95.1539 
-1.95621e-05      7.66422      173.181 
-2.94444e-05      9.28494      152.690 
-3.92401e-05      1.30050      12.4332 
9.77905e-06      5.71899     -166.037 
4.91536e-05      9.83100     -150.306 
9.77558e-06      4.83976      123.624 
-3.93027e-05      8.44947     -177.287 
1.96533e-05      8.59826     -176.266 
9.80665e-06      7.07046      153.544 
-9.79459e-06      2.80578      176.322 
9.80755e-06      6.46994      168.951 
9.81906e-06      8.48879     -143.913 
-9.80783e-06      5.43471     -125.942 
-1.96881e-05      5.17697     -80.7742 
-4.92644e-05      5.12161      95.2653 
-9.82760e-06      4.55693      144.287 
1.96890e-05      7.36221      136.046 
9.84898e-06      6.97299      134.070 
-9.85622e-06      5.60032      115.375 
-9.86360e-06      1.66235      125.698 
-9.87617e-06      7.83398      141.843 
9.87845e-06      4.26277     -161.395 
-9.87940e-06      8.62529     -171.936 
9.87894e-06      6.97995      134.129 
9.88677e-06      7.64084      157.126 
