! Center RA: 02 38 38.93011,  Dec: +16 36 59.27450 (2000.0)
! Established model.
! Flux (Jy) Radius (mas)  Theta (deg)  Major (mas)  Axial ratio   Phi (deg) T \
! Freq (Hz)     SpecIndex
  0.205248    0.0223607      26.5651 
  0.111772    0.0200000      0.00000 
 0.0316120    0.0141421      45.0000 
0.00413660    0.0781025     -39.8056 
0.00793563    0.0921954     -40.6013 
 0.0115619    0.0200000      90.0000 
 0.0165578     0.106301     -41.1859 
 0.0258486    0.0316228      108.435 
 0.0468376     0.120416     -41.6335 
0.00472027    0.0360555      123.690 
 0.0376887    0.0447214      116.565 
 0.0661783     0.127279     -45.0000 
 0.0181116    0.0412311      104.036 
 0.0178846    0.0509902      101.310 
 0.0289179    0.0500000      90.0000 
0.000685352     0.134536     -48.0128 
 0.0476734     0.128062     -51.3402 
0.00773638    0.0608276      80.5377 
 0.0141605    0.0632456      71.5651 
0.00860972    0.0806226      60.2551 
0.000335060    0.0538516      111.801 
0.00130950     0.106301      48.8141 
0.000962197    0.0640312      141.340 
0.000317612     0.113137      45.0000 
0.000619612     0.134536      41.9872 
0.00150343    0.0761577      156.801 
0.00207245     0.142127      39.2894 
0.00869508     0.136015     -53.9726 
0.00244557    0.0921954      167.471 
0.00243017     0.150000      36.8699 
0.00219833     0.158114      34.6952 
0.00416828     0.101980      168.690 
0.00368582     0.100499      174.289 
0.00241510     0.166433      32.7352 
0.00177048     0.174929      30.9638 
0.00243468     0.142127     -50.7106 
0.00226998     0.183576      29.3578 
0.00143294     0.122066     -145.008 
0.00138827     0.192354      27.8973 
0.00109080     0.148661     -47.7263 
0.00130162     0.104403      163.301 
0.000874861     0.155563     -45.0000 
0.00777727     0.201246      26.5651 
0.00193505     0.128062     -141.340 
0.000806766     0.230217     -55.6197 
0.00106985     0.156205     -39.8056 
0.00148667     0.107703      158.199 
0.000732635     0.164012     -37.5686 
0.00209927     0.236008     -53.6156 
0.000121688    0.0900000      90.0000 
0.000570348     0.174929     -30.9638 
0.00246214     0.134536     -138.013 
0.00171846     0.111803      153.435 
0.000638814     0.187883     -25.2011 
0.00264943     0.193132     -21.2505 
0.00207880     0.116619      149.036 
0.000957575     0.242074     -51.7098 
0.00321624     0.141421     -135.000 
0.000736464     0.248395     -49.8991 
0.00265535     0.189737     -18.4349 
0.00212720     0.122066      145.008 
0.000525014     0.254951     -48.1798 
0.000367403     0.261725     -46.5482 
0.00208990     0.196977      23.9625 
0.000243818     0.268701     -45.0000 
0.00217948     0.148661     -132.274 
0.00214819     0.275862     -43.5312 
0.00196243     0.128062      141.340 
0.000826185     0.186815     -15.5241 
0.000254392     0.193132      21.2505 
2.41999e-05     0.134536      138.013 
0.00421052     0.270000     -180.000 
0.000513900     0.210238     -154.654 
0.000521596     0.280000     -180.000 
0.000567917     0.201246     -153.435 
0.000504312     0.290000     -180.000 
0.000617160     0.192354     -152.103 
0.000251116     0.300000     -180.000 
-0.000978078     0.254951     -41.8202 
-0.000444906     0.184391     -102.529 
-0.000437807     0.186815     -105.524 
-0.000239175     0.262488     -40.3645 
-0.000647718     0.189737     -108.435 
-0.00113471     0.193132     -111.251 
-0.000446809     0.270185     -38.9910 
-0.000141855    0.0316228      161.565 
0.000328472     0.269258      15.0685 
-0.00146366    0.0223607      153.435 
0.00182700     0.350000      180.000 
0.00275205     0.306757     -70.9744 
-0.000875045     0.278029     -37.6942 
9.36795e-05     0.177200     -16.3895 
-0.00114944     0.264197      150.524 
9.77412e-05     0.272029      17.1027 
3.41658e-05     0.170880     -20.5560 
0.000267698     0.161555     -21.8014 
0.000305027     0.147648     -28.3008 
0.000117024     0.275136      19.0935 
-0.000578988     0.288444     -33.6901 
0.000206748     0.138924     -30.2564 
0.000346726     0.128062     -38.6598 
-0.000172259     0.300167     -29.9816 
0.000305821     0.120416     -41.6335 
-0.000716712     0.389487     -48.1221 
0.000275142     0.278568      21.0375 
0.000198555     0.113137     -45.0000 
0.000190528     0.350143     -178.363 
-0.000114078     0.295296     -28.3008 
0.000301420     0.108167     -56.3099 
-4.11313e-05     0.254558     -45.0000 
-6.99453e-05     0.182483     -99.4623 
-7.25047e-05     0.214709     -62.2415 
1.63747e-05     0.269258      21.8014 
0.00122588      4.99860      119.745 
0.000480191      3.69001    -0.155273 
0.000280605      1.69806     -30.0378 
0.000413974      3.71000      0.00000 
-0.00123006      2.02425      150.396 
0.00111940      3.94458      19.8590 
0.000268404      4.60109     -10.7726 
-0.00133702      4.18294     -64.9666 
-0.000392522      2.05275     -153.060 
0.000694085     0.990454      35.1342 
0.00141443      1.68941     -30.2076 
0.00113803      4.40409     -163.376 
-0.000359179      2.87313     -101.036 
-0.000817522      4.49814     -170.014 
0.000613582      4.61091     -10.7494 
0.000284275     0.996243     -54.3955 
-0.00207763      4.92946     -39.5675 
0.000878169      6.54313     -43.4518 
-0.00125439      2.16335     -6.36944 
-0.00110889      2.03931     -153.184 
4.04413e-05      3.70000      0.00000 
0.000231647      5.17279     -33.1678 
0.000339067      3.54651      116.999 
0.000396671      6.88033     -45.4122 
0.00107077      2.51072     -91.3694 
0.000398659      4.72823     -42.4286 
0.000192148      5.56893     -25.4147 
0.00123134     0.988130     -54.0579 
-0.000286178      4.11011      90.4182 
7.50627e-05      6.55001     -43.5153 
0.000184023      1.96352      173.273 
-0.000218616      5.00274     -161.710 
0.000571874      5.00357      119.844 
0.000277222      6.14955      138.560 
-7.20517e-05      3.91676     -176.634 
0.000108589      1.62250     -123.690 
-0.000673502      4.25361      85.4153 
0.000241729      5.56421     -25.5519 
-0.000177036      4.47790     -174.875 
-0.000144698      3.99451      107.482 
0.000482402      4.85128     -6.50974 
0.000192579      3.54216      117.216 
0.00106359     0.998649      34.8040 
0.000495312      5.18117     -33.1073 
0.000379647      3.72941      5.84818 
0.000564600      2.70512     -77.4023 
0.000490441      6.77263      47.3336 
-0.000202440      3.49046     -94.4365 
7.09548e-05      1.91050      10.2512 
-0.000172696      3.81345      175.186 
0.000932530      1.97345      173.307 
-0.000324395      4.25699     -149.821 
0.000411095      3.50143      91.6366 
-0.000622881      3.99752      107.619 
3.50115e-05      5.32888      61.6556 
-0.000225640      2.87507     -101.232 
0.000169647      1.92034      10.1981 
-0.000325267      4.99325     -161.674 
-0.000226040      3.70086      91.2386 
0.000642974      5.33364      61.5610 
-0.000754447      1.93166      92.3736 
0.000220838      1.62807     -123.983 
0.000166685      3.65604     -93.2928 
0.000336323      3.60801      36.7746 
-0.00115638      6.57198      139.134 
0.000322509      1.73626      111.985 
-0.000163082     0.875728     -83.4431 
-0.000126637      5.26024     -115.445 
0.000126756      1.25447     -171.289 
0.000130815      4.69359      166.822 
-0.00109576      4.46706     -174.991 
-0.000244061      3.50184      163.066 
-0.000204726      3.92674     -176.642 
-0.000301392      3.81430      175.037 
-0.000155281      4.11005      90.2788 
0.000125613      1.92844      9.85308 
-6.26498e-05      2.63093      120.366 
0.000208500      4.62074     -10.7263 
-0.000155443      2.88725      123.415 
0.000764519      3.65662     -93.4493 
0.000330664      4.70333      166.850 
3.16926e-05      3.43216     -76.6926 
0.000255558      6.15705      138.621 
0.000238305      3.07761      107.199 
0.000494040      3.42475     -76.4913 
-0.000415573     0.884590     -84.1605 
0.000974106      4.69315      103.681 
-3.10423e-05      3.49125     -94.6001 
0.000355366      6.88735     -45.3529 
0.000615049      4.69622     -72.1438 
-0.000229210      3.48128     -94.6133 
8.80775e-05      1.97649     -18.8933 
-0.000143758      4.77809      158.644 
0.000257403      1.74003      112.291 
-3.01108e-05      3.61001     -152.086 
-0.000917098      5.00589     -161.601 
0.000226726      1.93830      9.80250 
-5.95808e-05      5.46145      115.486 
-0.000455349      2.87891      123.524 
-0.000535692     0.382099      42.8789 
-2.97275e-05      4.99640     -161.565 
-5.88376e-05      3.60588     -151.871 
-8.80210e-05      3.82426      175.050 
0.000423770      4.85644     -33.9191 
-0.000213030      3.71086      91.2353 
-2.94011e-05      5.13693      14.1986 
-0.000209826      2.68287      73.3212 
0.000494362      3.55006      179.677 
-0.000277412      5.45674      115.626 
5.80069e-05      5.45476     -32.1167 
-2.88113e-05      2.52976     -103.487 
0.000112731      1.72192      78.9511 
-0.000134644      5.11509      14.1449 
5.58191e-05      3.87525     -101.310 
0.000264830      4.97993      122.286 
0.000165587      6.16003      36.6839 
2.85298e-05      1.26436     -171.357 
-8.34994e-05      3.59707     -151.796 
0.000244703      5.46323     -32.0610 
-8.29458e-05      2.86332     -101.074 
5.56948e-05      3.95399      19.8098 
-0.000138438      4.54674      105.565 
-8.08739e-05      4.11001      90.1394 
0.000415846      3.73936      5.83256 
-0.000108195      3.49285     -150.499 
-0.000129193      3.69287     -168.599 
0.000442309      4.65842     -176.554 
0.000100232      4.20777      134.133 
0.000212935      4.71535      166.759 
-0.000226519      3.51141      163.113 
0.000230318      3.07467      107.021 
0.000693252      4.86009     -6.37925 
-0.000330507      1.14612     -60.7512 
-0.000276798      3.74214      8.60647 
5.46702e-05      3.59344      160.153 
-0.000205755      3.49468     -33.3263 
0.000477988      6.53587     -43.5121 
-0.000159993      5.42543     -139.410 
0.000483281      4.21865      176.330 
0.000178999      4.06591      138.390 
0.000156430      3.61602      36.6798 
-2.72692e-05      4.56968     -104.705 
2.72550e-05      4.35013      144.922 
-7.58766e-05      2.52004     -103.540 
-0.000131829      3.81518      174.887 
-0.000319995      5.10221     -24.3045 
-7.98149e-05      3.94730     -176.514 
0.000104291      1.72386      78.6249 
-0.000649465      4.55637      105.531 
0.000369529      1.74385      112.595 
0.000851388      4.69080      103.562 
-0.000276936      4.99890      106.622 
5.27276e-05      3.59685      160.003 
0.000273251      1.73367      78.6901 
0.000102936      1.94815      9.75242 
-0.000126177      3.48210     -94.7773 
0.000100219      4.34195      144.846 
-0.000125788      3.58826     -151.721 
0.000344239      3.83329     -25.4955 
0.000537152      4.84814     -33.9851 
7.74194e-05      1.26905      49.1539 
-0.000122516      4.58190     -104.794 
-0.000313943      2.86526     -101.271 
-7.73726e-05      1.78239     -119.585 
0.000102229      6.16209      36.5538 
-0.000126323      5.05215     -8.99621 
-0.000144976      4.00056      107.756 
-0.000348550      2.16449     -6.63251 
-0.000202514      4.77445      158.756 
0.000573866      4.81680      142.083 
0.000267957     0.930215     -116.841 
-0.000530036      4.29540      14.4245 
0.000481805      1.98338      173.341 
-0.000240465      3.95728     -176.523 
9.96990e-05      3.30651      148.858 
5.12612e-05      5.47171     -32.0054 
-7.36834e-05      2.03295      150.535 
0.000146015      3.60624      160.058 
-0.000264504      5.41784     -139.341 
-0.000170963      5.45242      115.531 
0.000538482      3.56006      179.678 
-9.79052e-05      3.50156     -150.580 
0.000340727      4.57158      91.5041 
4.84620e-05      4.62261     -10.8481 
0.000170431      2.52097     -91.5911 
-0.000303143      2.78485     -140.537 
7.27682e-05      2.88735      74.3272 
-0.000123060      3.81608      174.738 
0.000122669      5.47702     -32.0941 
0.000235917      4.72508      166.787 
0.000560726      4.70574     -72.1811 
7.36986e-05      1.34183     -152.480 
-0.000352544      1.79602     -119.705 
-9.60659e-05      4.11000      90.0000 
0.000297297      4.98528      122.383 
2.49303e-05      3.53760      117.072 
0.000718607      3.62200      36.8066 
-0.000144857      3.48415     -119.582 
-9.19468e-05      1.35624      56.4271 
-0.000555295      5.06203     -8.97851 
9.21364e-05      6.76586      47.3959 
0.000143235      6.17013      36.4985 
0.000583668      3.79563      68.0304 
-0.000591614      5.12723      14.2260 
9.50856e-05      1.27562      48.8141 
0.000116433      1.95635      9.41417 
9.24226e-05      5.18955     -33.0470 
-0.000117774      1.71511      148.349 
4.77037e-05      1.67242      3.08481 
2.41207e-05      2.63532     -151.685 
-0.000118120      6.56544      139.200 
6.89624e-05      6.16456      138.683 
2.37704e-05      1.33297     -152.281 
0.000332230      5.48549     -32.0386 
-0.000442568      3.49757     -33.0994 
-0.000582488      1.26827     -162.565 
-0.000528006     0.503587     -83.1572 
-4.69118e-05      3.82697      174.602 
-0.000557176      2.84478     -117.646 
0.000107853      2.70732     -77.1957 
0.000247863      3.42710     -76.3287 
-6.97102e-05      4.86368     -78.7363 
0.000223627      6.51955     -132.327 
9.10238e-05      3.31507      148.947 
0.000554387     0.870919      68.4429 
-4.62406e-05      3.48294     -94.9412 
-0.000575189      5.00177      106.732 
0.000135742      1.32883     -151.699 
4.62087e-05      5.33841      61.4666 
2.33196e-05      4.84663      142.208 
-2.32856e-05      3.55788     -151.274 
-0.000154811      2.87340      123.358 
0.000405869      5.22793     -63.5330 
-4.61706e-05      4.43788     -56.9545 
0.000464250      6.37122      44.5549 
0.000859671      4.21930      176.195 
0.000163474      4.07339      138.483 
-0.000632849      6.57301      139.257 
0.000670243      4.66840     -176.561 
0.000295257      4.83873      142.135 
0.000405902      5.75608      122.586 
-2.30730e-05      4.91451     -72.2287 
-0.00167728      4.30509      14.3913 
-0.000515698      5.06830      93.2802 
0.000106292     0.980051     -53.7147 
0.000273882      2.52127     -91.8183 
-0.000112559      5.44772      115.671 
-0.000213998      3.54911     -151.196 
0.000248940      1.68241      3.06649 
0.000133512      6.17817      36.4433 
-0.00115216      4.92403     -72.2642 
-6.78514e-05      4.86565     -78.6208 
8.36581e-05      3.50173      91.8001 
-0.000291486      3.50595     -33.0102 
-0.000214708      5.08382     -28.6824 
-0.000128703      3.47922     -119.438 
-2.27298e-05      4.26358      85.4261 
0.000110652      4.32057      11.7521 
-0.000154494      4.42950     -56.8839 
-0.000364380      5.18664      33.1998 
-2.26361e-05      3.82792      174.453 
0.000668797      4.73466      145.672 
0.000318893      5.32962      61.4153 
2.25558e-05      5.75070      122.502 
-0.000169759      4.11001      89.8606 
-0.000171609      1.72363      148.523 
2.24876e-05      5.00728      119.688 
2.24815e-05      3.65887     -17.9893 
0.000454623      3.54359     -104.546 
6.57374e-05      5.18410     -32.9544 
0.000270555      3.65724     -93.6057 
6.44996e-05      3.07176      106.842 
0.000159568      2.54332      31.0024 
0.000356634     0.916788     -116.565 
-0.000299180      4.87545     -78.6440 
-0.000167562      3.68110     -168.721 
-0.000599498      4.59628      135.353 
0.000213262      4.74684      166.725 
-0.000170775      1.21202     -25.9308 
0.000107460      1.74244      113.328 
-0.000125443      4.00362      107.892 
-0.000203123      3.74066      8.45503 
2.20255e-05      5.28380     -133.543 
-0.000127698      3.96727     -176.532 
6.43321e-05      4.21474      134.231 
-2.18827e-05      2.03679      150.918 
-0.000559137      5.44340      115.576 
2.18295e-05      3.61565      160.112 
-8.55728e-05      5.41026     -139.272 
-2.18215e-05      3.51027     -150.660 
-8.37411e-05      3.82890      174.304 
-4.10404e-05      1.15104     -60.3169 
0.000104750      1.28222      48.4778 
0.000389247      5.29105     -133.468 
-0.000168073      4.39056     -52.2166 
0.000282994      6.17117      138.613 
-2.17398e-05      5.36672      162.207 
8.54013e-05      3.32364      149.036 
-0.000142322      5.11132     -24.2584 
0.000138838      1.96621      9.36651 
0.000122963      1.64757     -18.7649 
-0.000217832      1.94165      92.3614 
6.23619e-05      3.66838     -17.9410 
-0.000115958      4.39897     -30.7627 
2.14653e-05      1.45836     -137.779 
8.08686e-05      5.00234      119.589 
0.000205790      1.46578     -138.042 
-0.000134128      5.06360     -9.09028 
4.16562e-05      4.31984      144.802 
0.000161538      5.19249     -32.8943 
0.000102829      4.33036      11.7251 
0.000102758      6.18622      36.3883 
-0.000118346      2.02805      150.781 
-0.000362815      4.42405     -56.9924 
0.000355491      6.88024     -45.2944 
0.000386214      3.57006      179.679 
-4.05932e-05      4.57936     -104.674 
2.10144e-05      3.61906      159.963 
2.09653e-05      3.94119      19.7223 
-0.000153468      3.54035     -151.118 
-4.12800e-05      2.79893     -140.509 
-0.000199766      3.71109      91.3897 
-4.08725e-05      1.37011      56.3099 
0.000118828      3.33222      149.125 
0.000152274      3.98580      55.6321 
-0.000150640      2.86505      123.468 
-0.000190555      5.41679     -139.192 
0.000290589      1.74642      113.629 
0.000210009      3.82688      107.488 
0.000234959      4.75657      166.753 
0.000119355      5.49397     -31.9833 
6.03446e-05      3.79438     -85.0106 
0.000279021      4.20761     -119.002 
-4.03946e-05      4.83141      6.53663 
-0.00127395      4.87743     -78.5288 
-0.000282180      1.22102     -25.7256 
-3.96545e-05      4.92197     -44.1768 
5.93995e-05      5.14339     -95.4667 
2.02503e-05      4.22172      134.328 
2.02064e-05      1.99331      173.374 
0.000112955      4.39451     -163.338 
-7.85909e-05      3.98784     -176.406 
2.01274e-05      1.32004     -151.493 
0.000135302      4.88881      16.3962 
-0.000134183      1.73217      148.696 
-0.000113573      2.79122     -140.378 
-0.000274240      5.07903     -28.5835 
-0.000173610      4.39669     -52.1136 
3.92433e-05      3.62846      160.017 
3.93953e-05      4.31167      144.725 
0.000153826      1.00688      34.4792 
5.72190e-05      3.06888      106.663 
1.98272e-05      4.23586      134.330 
0.000133341      6.19427      36.3334 
-0.000305065      3.51899     -150.740 
-0.000205656      4.84134      6.52316 
0.000374669      4.70881     -72.0653 
0.000220029      3.16128      50.5193 
0.000227340      1.47411     -138.851 
-0.000307250      3.94103     -1.30856 
0.000215032      2.00212      173.691 
0.000165652      2.53819      30.8089 
3.81770e-05      1.28888      48.1450 
0.000506557      3.79526     -84.8602 
9.41769e-05      5.29793     -133.547 
0.000114203      4.24285      134.427 
-0.000544785      5.57460     -127.713 
-0.000194016      3.47432     -119.295 
-0.000145921      3.67129     -168.690 
1.94523e-05      2.42986     -172.670 
-0.000235696      4.00671      108.028 
-3.82463e-05      4.04821     -162.460 
0.000131182      5.49927     -32.0716 
-5.75967e-05      4.39847     -52.2964 
-7.52227e-05      4.11005      89.7212 
-9.25694e-05      3.90006      140.514 
-0.000110258     0.396232      42.9546 
0.000311700      4.82470      142.156 
0.000104155      3.67147     -18.0895 
-0.000471327      6.58059      139.314 
0.000305620      2.52960      30.9249 
0.000233974      5.20089     -32.8345 
-0.000261488      3.50892     -32.7843 
-0.000132888      4.93584     -39.6569 
0.000178007      5.11789     -76.6697 
0.000146816      5.40281      27.3239 
-5.46886e-05      3.82991      174.155 
-0.000159695      4.78377      158.799 
0.000439090      1.66048     -9.00850 
9.06109e-05      1.73566      78.3664 
0.000263202      4.85015     -6.39237 
0.000357751      3.54611     -104.702 
8.89829e-05      3.65788     -93.7620 
-3.74729e-05      4.54406      105.443 
7.37074e-05      4.10859     -134.310 
-0.000242398      3.99782     -176.415 
-0.000473827      2.94659      23.6071 
3.72434e-05      2.52161     -92.0454 
5.33259e-05      4.63155      178.515 
0.000730634      5.24597      116.125 
-0.000334752      5.18059     -151.901 
3.72010e-05      4.29773      144.757 
0.000151237      1.74542      114.362 
9.07230e-05      2.96921      140.466 
-0.000126314      4.40459     -52.1935 
-0.000126035      2.95576      23.5295 
5.46475e-05      5.14436     -95.5776 
-0.000148877      5.00466      106.842 
1.86637e-05      3.64128      159.923 
0.000139777      4.84366      149.888 
0.000336035      4.77834      166.691 
-0.000171883      4.03868     -162.417 
3.62425e-05      2.43977     -172.700 
6.57514e-05      2.04841     -80.4457 
1.84755e-05      3.63001      36.7121 
9.03808e-05      5.20220      40.0876 
5.34146e-05      3.34081      149.213 
-0.000168728      2.51032     -103.593 
-5.33824e-05      5.33886     -21.4228 
0.000200492      4.58157      91.5009 
7.16084e-05      3.65067      159.977 
0.000169698      5.11559     -76.7787 
3.64627e-05      4.89841      16.3631 
-0.000161363      4.10761     -93.4893 
0.000120798      1.01257      34.9457 
7.04673e-05      3.92841      19.6342 
0.000818171      5.45529      20.4946 
-0.000302655      3.62932     -85.8919 
5.38343e-05      4.24986      134.523 
-1.81554e-05      1.15603     -59.8863 
7.16261e-05      1.77003      90.3237 
8.88635e-05      6.01666     -139.719 
-0.000237623      1.75445      148.756 
-3.59616e-05      3.91203      52.8958 
0.000105062      4.28957      144.680 
-0.000139573      6.50637     -134.004 
7.10462e-05      1.48165     -139.105 
-3.54729e-05      1.80967     -119.823 
-3.51551e-05      3.58006     -70.7553 
-5.32215e-05      6.43124      51.3124 
0.000155776      6.20233      36.2787 
-0.000238655      5.25038      56.7337 
-7.02729e-05      5.01854     -161.529 
0.000118575      3.50206      91.9637 
3.55638e-05      1.29557      47.8156 
0.000302000      5.50775     -32.0164 
-1.78854e-05      5.36979      162.105 
0.000118290      4.72076      145.704 
0.000962729      6.74169      138.126 
-0.000385924      2.42442      16.0428 
0.000334547      2.04678     -80.7218 
-3.47247e-05      4.93611     -44.1792 
0.000541767      5.76148      122.670 
0.000152613      4.10161     -134.210 
-0.000143060      4.45710     -174.980 
0.000405162      5.54228     -52.5512 
-6.49356e-05      4.59157     -104.763 
-0.000178833      5.07190     -8.96088 
0.000120938      1.48273     -139.650 
-0.000164809      5.40922     -139.123 
8.34327e-05      3.82990      107.631 
0.000404666      5.23689     -63.5817 
0.000399434      6.17867      138.675 
0.000243838      3.57013      179.519 
-1.75656e-05     0.894539     -84.2257 
8.32490e-05      3.05644      106.538 
-1.75453e-05      3.73226      148.141 
0.000305777      1.76011      90.6511 
-0.000147653      5.13366     -24.2685 
0.000457780      4.59740     -159.634 
-3.46516e-05      5.35720      162.174 
-0.000433763      1.23004     -25.5234 
0.000297196      5.38934      27.2782 
0.000197407      5.19455      40.1586 
0.000132082      2.48516      93.6914 
-3.43540e-05      3.92604      52.8674 
0.000799686      6.74914      138.183 
-0.000129550      3.99276     -76.9731 
0.000409027      6.37824      44.6189 
3.42512e-05      4.91760      16.2975 
1.72335e-05      4.21247     -119.121 
1.72232e-05     0.974166     -54.1888 
-0.000114218      2.78352     -140.247 
3.41218e-05      6.02429     -139.780 
-0.000975763      6.58818      139.370 
-9.51482e-05      6.42499      51.3820 
-7.99957e-05     0.885664     -83.5169 
-1.71288e-05      2.15455     -6.66323 
-0.000376095      4.25265      34.8485 
-5.02275e-05      3.84089      174.022 
-3.41229e-05      4.14519     -104.673 
0.000164250      3.79938      67.8906 
-4.98593e-05      5.22934      22.2490 
1.70329e-05      1.30231      47.4896 
-3.35784e-05     0.403609      41.9872 
0.000177454      2.97693      140.589 
-0.000334356      1.33015     0.861526 
3.37584e-05      3.66007      160.030 
-1.69530e-05      1.38398      56.1951 
4.65553e-05      1.97608      9.31932 
-0.000392681      4.14267     -104.539 
4.96155e-05      3.34940      149.300 
-1.68970e-05      4.24444      34.9257 
-0.000159336      3.66149     -168.659 
0.000624722      3.53644     -104.744 
-3.33678e-05      1.46700      22.0190 
-4.93021e-05      4.85128      6.50974 
-3.28824e-05      3.74076      148.222 
-9.60246e-05      5.02802     -161.565 
0.000571977      4.76861      166.663 
4.97679e-05      4.28141      144.602 
-0.000235525      5.43909      115.481 
0.000192323      1.49037     -139.899 
-0.000217625      6.52746     -134.069 
-0.000120240      2.84930     -162.010 
-0.000231830      4.79310      158.842 
-1.65887e-05      4.94309     -44.2623 
-0.000517162      4.41022     -57.0306 
0.000112022      3.78917      160.417 
-4.88765e-05      2.31625      94.2090 
6.47181e-05      6.02313     -139.646 
-4.80699e-05      5.36027      162.072 
3.23933e-05      4.27102      134.621 
-0.000174028     0.754718      57.9946 
1.64423e-05      4.93680      16.2324 
-3.21117e-05      5.22009      22.2906 
-8.07220e-05      5.26423      56.7024 
0.000155430      5.20930     -32.7749 
-0.000109481      3.71135      91.5440 
9.32900e-05      3.65855     -93.9182 
-3.17488e-05      3.89371      140.628 
0.000287357      4.62131      178.636 
4.77182e-05      1.73770      78.0434 
6.34371e-05      6.21039      36.2241 
-0.000252666      5.07773      93.1611 
1.62422e-05      1.30908      47.1669 
4.76693e-05      5.34580      134.697 
1.62019e-05      4.26747      144.634 
0.000109771      4.84905     -6.27495 
0.000198649      1.99218      173.660 
-0.000137338      5.08781     -28.5296 
-1.61493e-05      4.95025     -44.1815 
-6.15906e-05      1.46328      21.6560 
6.27483e-05      4.10878     -134.113 
1.60318e-05      3.97190      55.6698 
0.000245193     0.921303     -117.121 
1.60067e-05      4.94640      16.2000 
0.000342269      3.84506     -138.057 
0.000106525      5.32565      61.2693 
-0.000108307      2.24294     -81.7976 
7.80958e-05      4.25932      144.556 
-4.29866e-05      2.60686     -39.5523 
-0.000167365      2.82708      129.546 
0.000243271     0.880227      68.6821 
4.66640e-05      3.35801      149.387 
-0.000177258      4.60340      135.440 
-7.72078e-05      2.31553      93.9622 
0.000120606      4.85087     -33.8211 
1.58680e-05      1.48923     -139.357 
1.58467e-05      5.57754     -25.6003 
1.58000e-05      1.31590      46.8476 
-0.000349971      5.25875      56.7934 
0.000226777      5.51623     -31.9613 
-4.59161e-05      4.03218     -162.239 
-3.08004e-05      1.38957      55.8525 
-0.000212924      1.25873     -162.429 
-4.63010e-05      4.95723     -44.2644 
-4.60082e-05      4.86121      6.49638 
0.000105742      1.02078      34.6242 
-1.56575e-05      3.93209      52.7512 
7.46258e-05      5.58656     -25.5559 
1.56522e-05      3.44693     -39.2309 
1.56398e-05      4.95601      16.1677 
-0.000254317      2.57498      23.5784 
-0.000158141      1.76301      148.925 
0.000358279      3.80865      67.9472 
0.000215884      4.03407     -173.738 
-6.10075e-05      2.62376     -38.9667 
4.60833e-05      3.50241      92.1272 
-0.000107766      3.65657     -164.291 
0.000773706      4.71190     -71.9496 
-4.39983e-05      4.00781     -176.424 
-0.000231420      3.63793     -86.2174 
5.88014e-05      3.68098     -18.0412 
8.59986e-05      3.11014     -65.4951 
8.80849e-05      2.48453      93.4613 
-3.02695e-05      3.93815      52.6354 
-5.68692e-05      4.46794     -174.864 
0.000103218      6.03075     -139.708 
3.04311e-05      4.96561      16.1356 
0.000117300      4.25118      144.478 
-7.24220e-05      2.50060     -103.647 
0.000147189      3.81136      160.377 
-8.62248e-05      3.53055      163.207 
-6.01722e-05      4.07123      178.593 
1.52137e-05      3.67289      159.937 
0.000142488      5.33877      134.621 
0.000138529      1.49803     -140.145 
1.52058e-05      5.20101      40.2428 
1.52012e-05      3.10601     -65.6629 
-0.000154380      2.85365     -117.553 
0.000350643      5.76688      122.753 
4.50036e-05      6.21846      36.1696 
0.000301217      6.01140     -121.601 
-3.83800e-05      5.19779      22.2722 
3.00192e-05      1.32276      46.5316 
1.51713e-05      1.74748      78.1113 
1.51600e-05      4.97684      122.445 
-0.000132258     0.760066      57.3554 
-0.000213446      4.92100     -72.3751 
0.000155841      4.10183     -134.012 
7.37524e-05      2.77354      146.023 
-0.000194822      2.77584     -140.115 
0.000589756      1.65061     -9.06286 
1.50531e-05      6.53644      129.413 
0.000217935      5.19338      40.3141 
7.16801e-05      6.52629     -132.392 
-0.000153883      5.40167     -139.054 
-1.49862e-05      3.75453      148.173 
8.57801e-05      3.36662      149.474 
0.000157073      4.84022     -6.40555 
0.000181588      3.49281      92.2972 
-0.000325678      6.74685      41.1540 
0.000101742      6.53507      129.536 
-0.000223928      4.31478      14.3583 
0.000165413      2.98466      140.711 
2.97381e-05      5.61089      34.0299 
1.48848e-05      2.37697     -75.3791 
0.000487254      1.80649     -144.462 
8.67547e-05      1.74957      77.7909 
4.09691e-05      4.47207     -167.735 
1.48521e-05      3.45468     -39.1260 
-5.75947e-05      3.99051     -77.1130 
-4.38308e-05      4.97137     -44.2665 
0.000139106      3.56013      179.517 
-0.000273059      2.24154     -82.0506 
-0.000231195      5.43871      115.717 
-0.000444876      4.07100      178.733 
-2.94349e-05      5.14278     -24.2227 
-7.22504e-05      4.87115      6.48307 
-2.93620e-05      3.64973     -168.782 
-9.98724e-05      2.31487      93.7153 
-0.000286119      5.17177     -151.849 
2.91721e-05      4.97522      16.1036 
0.000305094      5.60261      34.0872 
-2.86364e-05      3.94422      52.5200 
-0.000143515      2.95178      23.3515 
4.35282e-05      5.28417     -133.390 
-2.92040e-05      4.96517     -14.8199 
-9.86902e-05      1.40346      55.7438 
-9.73038e-05      3.58950     -70.8079 
6.89821e-05      1.74049      114.798 
4.33545e-05      1.32966      46.2189 
0.000374160      5.25056      115.979 
-0.000312210      1.23907     -25.3242 
8.20560e-05      4.84868      149.786 
1.45680e-05      5.49927     -122.072 
9.86015e-05      1.49683     -139.606 
0.000306045      5.20389     -32.6823 
0.000234185      5.52153     -32.0494 
0.000313374      1.76026      90.9765 
-0.000277919      3.63992     -168.752 
-0.000218896      4.15486     -104.638 
-1.44755e-05      3.46944     -119.151 
-2.88383e-05      4.96262     -14.7083 
-5.56753e-05      3.71163      91.6983 
0.000111049      5.80897      54.1757 
-5.55176e-05      3.93103     -1.31189 
-0.000156995      4.99509      106.875 
-8.52270e-05      2.83346      129.702 
8.32569e-05      6.37113      44.6820 
5.58374e-05      4.27805      134.716 
1.43934e-05      6.22654      36.1153 
-9.55218e-05      4.60379     -104.851 
-5.51695e-05      4.02266     -162.196 
-5.56215e-05      5.03751     -161.601 
-0.000286123      2.96096      23.2748 
-4.25710e-05      1.47258      21.5124 
-4.25096e-05     0.768505      57.7575 
-0.000275875      4.00346      12.4046 
-0.000288720      6.53442     -134.132 
-0.000228619      4.80243      158.885 
-1.42987e-05      4.24694      34.7378 
-1.43155e-05      4.95550     -14.8495 
-7.00207e-05      4.98551     -44.2686 
2.84114e-05      1.42864     -170.735 
-5.61226e-05      3.23303      140.648 
1.42697e-05      4.98483      16.0717 
0.000149744      2.78183      146.139 
0.000189250      3.82079      160.427 
-0.000108199      1.00807      100.864 
-0.000397664      4.23873      34.8148 
-0.000178740      4.95295     -14.7377 
-4.08996e-05     0.876926     -82.7939 
2.78757e-05      6.21235      129.841 
6.93800e-05      1.33660      45.9094 
0.000281645      4.75888      166.635 
-5.48618e-05      5.15601     -24.2784 
1.41208e-05      3.65925     -94.0745 
2.78940e-05      1.02903      34.3078 
0.000333331      5.44593      20.5314 
6.57853e-05      4.97148      122.347 
2.78114e-05      4.59393     -159.751 
0.00110533      6.87314     -45.2358 
8.11590e-05      3.78621     -84.6960 
-0.000124112      6.59577      139.427 
0.000276315      6.52871      129.468 
0.000428448      4.58455     -159.707 
5.45810e-05      5.29145     -133.315 
5.49164e-05      6.03839     -139.769 
1.40139e-05      5.00682      16.1183 
4.14007e-05      5.12021     -76.5608 
-0.000193489      4.39018     0.522043 
4.14771e-05      6.23462      36.0612 
-0.000141340      2.43403      15.9777 
-6.83411e-05     0.773886      57.1313 
9.51039e-05      5.01642      16.0866 
-6.72632e-05      5.09660     -28.4759 
-0.000488915      6.58927      139.493 
5.45919e-05      1.75171      77.4712 
-0.000134129      2.84116      129.573 
-9.43214e-05      4.88109      6.46982 
8.07058e-05      4.24304      144.400 
-0.000105977     0.630714     -2.72631 
0.000120325      7.20545      44.8313 
-2.72841e-05      5.10539      14.1723 
-8.97257e-05      4.54141      105.322 
1.38012e-05      3.64166     -45.3338 
1.37964e-05      1.43851     -170.800 
-4.08584e-05      1.46895      21.1495 
0.000183902      4.85918     -33.7555 
-7.77551e-05      6.40470      51.4659 
2.71889e-05      4.83389     -95.6988 
1.37706e-05      5.50459     -122.160 
-0.000424386      5.38536      18.4013 
0.000260145      5.54044     -52.4062 
0.000105707      3.52070     -1.13925 
9.32500e-05      5.24135     -63.4838 
-2.70838e-05      3.95032      52.4049 
-6.65114e-05      2.31424      93.4682 
-0.000168147     0.765506      56.7251 
5.38835e-05      5.28487     -145.017 
0.000141707      1.50446     -139.853 
-7.94953e-05      4.99249     -44.3508 
5.13613e-05      1.97773      9.60520 
-7.81038e-05      4.61754      135.439 
3.99668e-05      1.02343      33.8453 
-5.26078e-05      2.49826     -103.424 
0.000113232      5.50146     -122.303 
0.000125115      5.37587      27.2324 
-0.000115167      5.07718      93.0484 
0.000104614      5.19234     -67.5839 
-0.000141766      3.63728     -86.3745 
0.000548574      4.83028     -6.41879 
1.34253e-05      6.24271      36.0071 
2.65147e-05      3.63600      36.8384 
-2.66989e-05      4.52598      170.205 
8.99421e-05      6.04602     -139.830 
3.90108e-05      3.37523      149.560 
5.28515e-05      1.34358      45.6031 
-9.18548e-05      5.20159     -117.353 
-0.000214654      5.25328      56.8847 
-0.000480971      6.00903      139.657 
1.32932e-05      5.49613     -122.215 
0.000215199      5.29306     -145.079 
-3.89664e-05      1.47828      21.0097 
3.93245e-05      1.75391      77.1523 
-1.32623e-05      1.41736      55.6372 
-0.000124363      1.32034      1.30195 
0.000141332      4.10903     -133.915 
-1.32244e-05      2.59915     -39.6927 
-1.32130e-05      3.71194      91.8526 
-0.000128225      4.94328     -14.7672 
-8.88115e-05      1.24920     -162.290 
9.07640e-05      5.02603      16.0550 
3.92085e-05      6.25080      35.9532 
-0.000682139      5.05964     -161.565 
-0.000110768      3.93081     -1.16617 
1.31662e-05      3.05360      106.358 
-3.83888e-05      4.53584      170.226 
3.82676e-05      4.83291     -95.5808 
1.31423e-05      5.59559     -25.5118 
3.91319e-05      5.81483      54.0958 
1.31155e-05      6.53303     -132.457 
-0.000535405      6.77702     -49.0686 
-0.000122297      1.36242     -54.5601 
-3.89768e-05      3.70228      92.0123 
-0.000160161      3.98830     -77.2530 
0.000713461      5.53001     -31.9944 
-1.30699e-05      4.10824     -93.6285 
7.57528e-05      4.04401     -173.754 
-1.30535e-05      3.96434      52.3785 
-0.000151151      4.90209      6.55962 
-3.84569e-05      4.02840     -176.299 
3.87918e-05      6.74994      138.303 
-6.37547e-05      4.93718     -39.4935 
0.000100702      1.35059      45.3000 
2.57111e-05      3.61216     -36.3306 
-2.57487e-05     0.640703     -2.68378 
-8.64909e-05      5.56670     -127.776 
0.000136964      2.79014      146.253 
-7.64531e-05      5.20619     -117.451 
7.55034e-05      3.92623      121.990 
-7.59198e-05      3.97045      52.2642 
0.000125412      1.81232     -144.205 
0.000514208      6.78470     -133.149 
7.57288e-05      4.88370     -177.770 
0.000123511      3.49322      92.4611 
-6.22381e-05      5.10539     -28.4224 
-2.55929e-05      2.85881     -162.072 
-0.000345669      5.46627      39.1345 
0.000411898      6.74248      138.246 
-0.000245675      2.84754      129.728 
6.34985e-05      5.59433      34.1446 
0.000156628      2.61262     -10.3637 
0.000360102      3.83021      160.477 
-6.33969e-05      2.55002      102.456 
2.55783e-05      5.81850      53.8785 
3.82006e-05      6.25890      35.8995 
2.45903e-05      4.22909      144.431 
2.55212e-05      1.03175      33.5360 
-0.000172629      5.00664     -44.3526 
-2.54704e-05      4.11822     -93.6197 
0.000164242      5.00612      119.433 
-6.26329e-05      1.01980      101.310 
-0.000202105      2.76818     -139.982 
1.27735e-05      4.62788     -176.655 
1.27595e-05      1.75616      76.8342 
2.52292e-05      3.05080      106.178 
-0.00270089      6.59688      139.549 
-3.69939e-05      3.53160     -151.040 
-0.000209703      5.16295     -151.797 
0.000909160      6.17207      138.744 
-8.64864e-05      3.70265      92.1669 
3.73714e-05      1.98225      173.628 
-4.94451e-05      2.16723      168.016 
5.01307e-05      5.13066      84.8561 
8.65114e-05      6.35843     -139.848 
-0.000204782      4.16454     -104.604 
0.000304013      2.90000     -126.870 
0.000124187      5.03564      16.0235 
3.75169e-05      4.23723      144.509 
-6.15643e-05     0.869770     -81.4041 
0.000290465      5.43656      20.5684 
4.97577e-05      3.42958      14.5225 
6.20617e-05      5.82440      53.7990 
-1.26355e-05      4.16707     -104.737 
3.62688e-05      4.61131      178.633 
-0.000629267      5.19732     -117.502 
0.000181020      3.51091     -1.30566 
2.46170e-05      2.43016     -79.5686 
8.59497e-05      4.54411     -11.6809 
-8.51142e-05     0.641249     -3.57633 
6.21145e-05      6.26700      35.8459 
-0.000241968      6.14193      39.7817 
1.25394e-05      1.74874      76.4405 
1.25356e-05      5.24582     -63.3861 
-0.000292162      1.24812     -25.1278 
6.15179e-05      4.61790     -176.648 
0.000145047      5.18854     -67.6859 
1.25097e-05      3.62240     -36.0157 
-7.25491e-05      3.92521     -46.1354 
0.000185684      4.74915      166.608 
-3.68340e-05      1.47472      20.6470 
1.24977e-05      1.74132      114.063 
-2.40543e-05      2.50799     -103.371 
-9.59071e-05      4.81176      158.928 
-4.78452e-05      4.91798     -72.4861 
-0.000108201      2.85575     -162.263 
3.65829e-05      7.19840      44.7749 
-8.03350e-05      4.00671     -161.972 
0.000632228      1.51212     -140.097 
-0.000132067      5.57667      57.8204 
-4.87991e-05      4.11886     -93.7586 
-9.75221e-05      2.55220      102.675 
-0.000214862     0.771038      56.1038 
-3.67456e-05      4.45798     -174.852 
1.24341e-05      1.75847      76.5169 
0.000272259      4.10210     -133.815 
0.000153304      4.87370     -177.766 
0.000532152      1.11005     -79.0950 
-6.08528e-05      4.03838     -176.309 
0.000307535      6.52737      129.592 
2.45726e-05      1.04010      33.2317 
2.47580e-05      3.94038     -115.720 
-1.23892e-05      2.31366      93.2210 
0.000108644      5.58044      34.1172 
4.82818e-05      4.00649     -96.5929 
2.44442e-05      1.22037     -88.5914 
0.000333437      5.13157      84.7449 
0.000274406      5.53435     -52.4882 
-1.23676e-05      2.24018     -82.3039 
-4.79615e-05      2.58414      23.4897 
-2.41912e-05      4.94354     -39.5830 
1.23133e-05      3.09690     -65.5867 
-6.01021e-05      5.08024     -8.83191 
1.23116e-05      1.76082      76.2005 
-8.29813e-05      4.93361     -14.7968 
-0.000298122      4.92537      2.67651 
1.22860e-05      5.24137     -63.2394 
-6.03025e-05      3.97658      52.1503 
-0.000160264      6.73274      41.1459 
9.60990e-05      3.95373     -115.787 
2.44182e-05      1.75111      76.1225 
6.06231e-05      6.27511      35.7924 
-0.000418046      6.88750      137.648 
0.000274188      6.00616     -121.520 
-9.58840e-05      3.63011     -168.721 
0.000162925      4.96303      122.409 
0.000615325      6.23927      54.9854 
-2.42931e-05      3.63666     -86.5318 
-1.21855e-05      3.45974     -118.862 
7.05282e-05      5.83031      53.7197 
-1.21703e-05      2.24878     -82.5906 
-0.000129245      4.08099      178.736 
-0.000243626      6.54138     -134.195 
-0.000117955      4.91203      6.54629 
4.81959e-05      5.04526      15.9922 
-3.59206e-05      1.02181      101.860 
-9.58400e-05      5.37587      18.4349 
0.000280106      1.64906     -8.71975 
4.78006e-05      4.60792     -176.641 
7.07730e-05      3.43926      14.4807 
1.20761e-05      1.36473      45.2969 
-7.02784e-05      3.14951     -96.3804 
-1.20594e-05      2.87388      98.8068 
4.77659e-05      1.75354      75.8053 
-0.000118102      5.16769     -151.699 
-0.000139326      5.04460     -169.492 
-3.53779e-05      2.24751     -82.8434 
-0.000479774      5.06913     -161.601 
0.000129350      5.06724      16.0386 
0.000104915      1.37179      45.0000 
0.000105663      5.28734     -145.168 
-0.000105338      2.87543      99.0037 
6.98096e-05      5.35493     -49.4683 
1.19572e-05      2.53476      31.1188 
7.11281e-05      6.28322      35.7391 
-5.84084e-05      3.64549     -86.8550 
1.19470e-05      1.05395      33.3885 
7.07437e-05      5.50681     -122.391 
-1.19410e-05      2.31311      92.9737 
2.36819e-05      3.38386      149.646 
1.19245e-05      4.90046      40.6140 
5.84890e-05      6.34434     -139.859 
-1.19268e-05      4.38018     0.523235 
-2.37380e-05     0.868332     -82.0565 
-2.36127e-05      5.21211      36.4961 
-1.19145e-05      5.02078     -44.3544 
1.19081e-05      4.53635     -11.8301 
0.000115210      2.79846      146.367 
0.000226973      1.79836     -144.277 
-0.000104240      4.04836     -176.318 
-3.51916e-05      3.69347      92.4828 
2.33182e-05      3.92094      121.866 
-0.000404101      5.01363     -44.4343 
-6.97463e-05      5.10944     -28.2704 
1.18600e-05      6.05367     -139.891 
-8.05272e-05     0.631269     -3.63295 
-3.49532e-05      4.11953     -93.8973 
8.89099e-05      5.18576      40.3856 
4.70122e-05      4.52657     -11.8561 
-9.29274e-05      2.55441      102.894 
5.81256e-05      5.21231     -32.6229 
1.18086e-05      1.06231      33.0917 
-1.17995e-05      2.17702      168.071 
-1.18058e-05      1.48408      20.5109 
-3.50854e-05      2.96061      116.911 
-0.000127854      5.36639      18.4687 
1.17777e-05      1.76570      75.5702 
-0.000137009      5.24782      56.9761 
2.34554e-05      4.58737     -176.751 
8.02218e-05      4.90805      40.5380 
2.31537e-05      1.98759      9.55710 
8.05567e-05      5.57216      34.1749 
-2.33698e-05      1.03368      102.288 
-4.50118e-05      4.40010     0.390647 
-5.79116e-05      3.62817     -168.876 
2.32372e-05      3.04803      105.997 
-0.000136147      3.98610     -77.3932 
4.62995e-05      3.96709     -115.855 
0.000542023      6.29134      35.6859 
-0.000338399      6.14323      39.6503 
-6.89959e-05      3.98273      52.0367 
1.16844e-05      1.75602      75.4889 
-5.76432e-05     0.859884     -81.3045 
-0.000125816      2.85394      129.883 
8.00998e-05      5.36241      27.1862 
-2.31290e-05      2.32215      92.4681 
1.16642e-05      4.05395     -173.769 
-2.30721e-05      6.52100     -50.4757 
-0.000102591      5.91906     -149.883 
-2.30713e-05      3.70304      92.3215 
0.00100490      5.53321     -31.8517 
9.11830e-05      4.57739     -176.744 
0.000300566      5.19401     -67.8299 
3.47277e-05      1.76822      75.2564 
-9.11129e-05      5.09012     -8.81463 
-1.16167e-05      4.55105      105.288 
-0.000259837      5.15414     -151.744 
0.00119671      5.03612     -172.240 
0.000114121      4.51885     -12.0062 
-3.43160e-05      4.39010     0.391537 
-6.88692e-05      6.19802     -36.9993 
1.15586e-05      3.97146     -115.984 
-1.15594e-05      1.94209      92.6561 
1.15600e-05      5.49837     -122.447 
-4.57324e-05      2.96953      116.824 
0.000124168      3.50116     -1.47300 
-1.15423e-05      5.22015      36.4309 
-1.15370e-05      3.45492     -118.716 
0.000181088      5.07685      16.0074 
4.58771e-05      5.42720      20.6055 
0.000253595      5.50374     -122.535 
-9.12311e-05      4.92062      168.987 
-3.38327e-05      1.03586      102.829 
9.14796e-05      6.99358      44.4786 
-1.15103e-05      4.17675     -104.702 
-5.64720e-05      1.48061      20.1484 
-0.000487203      6.00142      139.595 
-0.000111763      4.23052      34.8922 
0.00126432      6.73502      138.190 
0.000125107      5.53252     -52.3430 
-0.000371819      2.86527     -162.324 
-4.54270e-05      5.57283     -127.857 
3.40622e-05      6.06132     -139.952 
-0.000299384      4.93304      6.63520 
0.000235036      5.29555     -145.230 
7.79081e-05      2.04944      103.833 
-3.40416e-05      5.57136      57.9074 
4.54344e-05      1.77079      74.9435 
-0.000124272      5.35690      18.5026 
-6.74136e-05      4.17422     -104.569 
-2.26815e-05      4.35660     -80.7539 
-0.000364266      5.33128      106.565 
-0.000146571      6.20601     -36.9438 
-0.000141803      3.88973     -7.08848 
-4.50109e-05      2.32175      92.2216 
5.65073e-05      3.98483     -116.051 
-0.000100707      2.55666      103.112 
1.13579e-05      1.07912      32.5119 
0.000687968      5.44008      20.6670 
-3.36247e-05      4.92394     -14.8265 
7.79713e-05      1.37888      44.7062 
9.91847e-05      2.90601     -127.028 
6.78252e-05      7.00071      44.4213 
-6.69152e-05      3.64496     -87.0120 
-1.13413e-05      6.41094      51.3960 
-5.60120e-05      5.04017      116.260 
-0.000392305      6.78358     -49.0048 
-3.37263e-05      2.87701      99.2004 
-0.000132789      3.15063     -96.5611 
-1.13322e-05      4.05834     -176.327 
4.48508e-05      4.54579     -81.0143 
0.000338176      4.58803     -159.590 
-1.13306e-05      5.40560     -109.675 
0.000243069      6.52100      129.524 
5.56077e-05      3.04120      106.230 
2.25614e-05      4.28019     -37.4054 
-7.76165e-05      1.36825     -54.2189 
7.75920e-05      2.62069     -10.1093 
-0.000198920      4.07895     -176.205 
-0.000206449      5.71988     -26.6994 
0.000621950      5.52642     -52.4251 
-7.82105e-05      3.98888      51.9234 
3.31930e-05      3.44894      14.4392 
-0.000393555      5.05443     -169.513 
-2.24993e-05      3.17605     -52.8054 
-0.000199416      4.93044      169.009 
-2.23165e-05      3.61836     -168.845 
0.000111836      7.01486      44.4224 
0.000316003      4.10932     -133.718 
0.000141944      5.37492     -59.4750 
-7.79607e-05      5.67501     -32.9900 
-2.22529e-05      5.40897     -109.775 
0.000175798      4.87333     -177.883 
-4.41806e-05      3.69391      92.6378 
-6.65326e-05      2.96503      116.651 
-4.45290e-05      4.09078      178.879 
-1.12188e-05      4.82109      158.971 
0.000110949      1.65895     -8.66739 
-0.000120222      4.35822     -80.6241 
5.55476e-05      1.77341      74.6315 
-1.12064e-05     0.776660      55.4915 
1.11941e-05     0.925905     -117.672 
3.35249e-05      4.51116     -12.1569 
-7.75633e-05      3.17002     -52.9494 
-1.11896e-05      5.11825     -28.2174 
0.000187222      6.77056     -133.145 
-0.000165625      5.49392      22.9247 
-6.62874e-05      5.57897     -127.938 
7.67055e-05      6.06776     -139.880 
-2.20919e-05      4.91498     -72.5973 
-0.000121457      6.54836     -134.258 
5.53831e-05      4.00262     -116.245 
4.39278e-05      4.28813     -37.3242 
-0.000176612      6.21400     -36.8883 
-0.00120041      6.88817      137.765 
1.11472e-05      5.35385     -49.3175 
-2.22606e-05      5.34742      18.5366 
-0.000185326      2.85272      130.166 
-1.11253e-05      4.75035     -107.520 
-0.000142153      5.23399      57.0083 
0.00190039      4.50139     -12.1837 
-4.42399e-05      5.10000     -8.79741 
6.60268e-05      3.55445      130.322 
0.000241967      7.02200      44.3653 
0.000153800      5.08646      15.9763 
3.29435e-05      4.56741     -176.737 
-2.20194e-05     0.621289     -3.69139 
1.10883e-05      4.75607      161.489 
-4.42108e-05      5.33476      18.4689 
0.000130139      4.73942      166.580 
0.000163268      4.71501     -71.8340 
3.28826e-05      4.91566      40.4622 
-0.000412460      5.17907      171.338 
0.000292529      4.54736     -80.8898 
-9.79728e-05      2.32138      91.9749 
-0.000853763      5.20194     -117.600 
-2.20027e-05      2.25282     -83.8845 
-8.75957e-05      3.99506      51.8106 
7.67121e-05      6.35020     -127.321 
-2.19870e-05      4.74735     -107.404 
-0.000185049      5.32528      18.5030 
3.29564e-05      4.76239      161.641 
-0.000314686      5.14534     -151.692 
-4.39471e-05      5.67797     -32.8504 
7.64656e-05      4.88943      171.058 
-0.000205453      4.10078      178.882 
2.19909e-05      4.50907     -12.0326 
-8.71726e-05      2.55895      103.330 
9.79861e-05      3.49143     -1.64126 
-2.18357e-05      1.47719      19.7843 
-2.19271e-05      3.64694     -164.249 
7.59966e-05      5.36985     -59.5669 
1.09774e-05      4.15578      169.042 
3.27664e-05      5.24183      115.783 
4.37299e-05      5.15571     -159.210 
-3.27457e-05      5.03575      116.158 
-5.85444e-05      5.92409     -149.799 
0.000183704      1.10820     -79.6027 
-0.000226583      4.93536      2.67109 
-0.000119451      5.10837     -8.66942 
-5.43201e-05      4.17171     -104.436 
0.000118779      3.03842      106.049 
5.44100e-05      4.01602     -116.310 
9.79294e-05      4.61825      124.413 
-0.000140387      5.66957     -32.9052 
-0.000118857      3.98393     -77.5336 
0.000377765      1.65747     -8.32565 
-5.42217e-05      3.16400     -53.0939 
4.35978e-05      5.98719     -121.407 
0.000280959      5.30377     -145.291 
-0.000249333      5.61128     -35.6445 
-0.000614413      6.22200     -36.8331 
-5.43025e-05      2.96056      116.479 
2.17435e-05      1.77609      74.3205 
1.09132e-05      4.86195     -33.5920 
-0.000129475      4.77319      154.831 
0.00156690      6.86604     -45.1770 
2.17793e-05      1.10454      31.6755 
-0.000344817      5.49783      23.0207 
5.41405e-05      4.77189      161.679 
5.41683e-05      6.36607     -139.906 
-7.58722e-05      4.34836     -80.6027 
-0.000228676      6.56250     -134.259 
-9.72237e-05      5.58512     -128.019 
0.000367592      7.02915      44.3083 
0.000151106      5.17795     -159.185 
-0.000118831      6.15093      39.5909 
-0.00197144      6.60449      139.606 
-2.17400e-05      2.25178     -84.1375 
-2.17097e-05      6.27274     -48.9430 
-0.000140099      4.97136      19.0181 
-0.000205028      5.08178     -161.529 
-4.32344e-05      4.41567     -56.9217 
-1.08887e-05      3.23446      140.898 
-0.000129578      5.97017      138.191 
0.000161772      6.45676      135.941 
7.56114e-05      3.56093      130.444 
0.000172859      5.09608      15.9454 
5.42732e-05      5.97345     -121.375 
0.000174420      1.11629     -80.2002 
-6.49280e-05      6.25800     -51.6834 
-1.08595e-05      4.41010     0.389761 
1.08635e-05      5.36302     -141.207 
-2.15575e-05      3.79563     -21.9696 
6.46463e-05      2.80680      146.480 
-1.08479e-05      4.92490     -137.139 
-3.24114e-05      4.94025      169.031 
-6.46060e-05      1.25718     -24.9343 
6.48708e-05      4.65649     -30.3096 
4.30996e-05      5.55000      34.2055 
-2.16135e-05     0.611310     -3.75173 
1.08400e-05      1.11306      31.4052 
-3.23992e-05      4.22232      34.9698 
2.16230e-05      5.23749      115.684 
6.46268e-05      3.81792      68.0035 
-2.16363e-05      4.00910      51.7866 
0.000258398      6.17301      138.875 
0.000140209      4.98443      177.585 
-8.60598e-05      1.36015     -53.9726 
-2.15909e-05      3.24222      141.009 
0.000193331      6.76373     -133.083 
-2.16195e-05      3.15179     -96.7417 
3.24394e-05      5.95971     -121.343 
0.000249995      4.89931      171.076 
-5.38339e-05      4.73482     -107.325 
1.08158e-05      4.04605      84.8953 
-3.22810e-05      4.92139     -14.7139 
-3.22632e-05      6.74027      41.0900 
-3.23900e-05      4.68788      66.2237 
-3.23202e-05      2.25078     -84.3907 
0.000194441      6.45654      135.816 
5.39490e-05      5.94077     -121.228 
3.23748e-05      6.51464      129.456 
0.000325035      4.62391      124.515 
-1.08021e-05      2.56127      103.548 
-0.000128890      5.30314      18.4691 
3.22956e-05      2.63053     -10.0711 
3.22501e-05      4.19005      176.031 
-0.000361030      4.95407      6.72335 
2.15291e-05      2.04707      103.561 
1.07856e-05      1.76045      91.3020 
0.00105404      6.78346      133.507 
-7.52019e-05      4.01530      51.6745 
-1.07889e-05      4.08892     -176.214 
1.07816e-05      5.37082     -141.274 
-2.15243e-05      3.93910     -45.9257 
-1.07813e-05      3.70346      92.4761 
9.66013e-05      3.50143     -1.63658 
-0.000107370      2.56868      103.279 
-0.000257530      5.99494      139.668 
-0.000107450      4.69192      66.1119 
-0.000268800      5.11825     -8.65254 
-5.36871e-05      2.95611      116.305 
-1.07794e-05      4.42010     0.388879 
0.000139599      5.19024     -67.9321 
-6.44179e-05      3.16413     -97.0801 
2.15080e-05      1.77882      74.0104 
-5.37426e-05      2.98520     -43.3712 
-0.000270327      5.33414      106.668 
-5.37207e-05      6.43547     -47.8341 
0.000556630      5.92704     -121.196 
0.000107333      6.51329      129.580 
-4.29833e-05      1.78370      30.3027 
1.07694e-05      4.03387     -116.502 
2.15092e-05      5.23316      115.586 
6.43809e-05      1.81463     -144.646 
-0.000728264      5.60316     -35.7041 
-0.000107282      5.22855      57.1002 
-1.07557e-05      5.11353     -28.1186 
1.07497e-05      4.92327      40.3867 
-0.000150632      6.25636     -51.5547 
0.000128799      4.64786     -30.3718 
0.000118003      6.37373     -139.964 
2.14890e-05      1.39302      44.7092 
-2.14676e-05      4.16923     -104.303 
-1.07461e-05      4.90344     -137.066 
-1.07469e-05      5.02237      116.106 
-0.000150311      4.94217      168.917 
-5.35861e-05      3.15801     -53.2390 
0.000806689      7.03631      44.2515 
-0.000150271      2.85918      130.319 
3.21726e-05      5.18538     -11.0066 
-0.000182210      3.66805      169.793 
-0.000161672      4.98271      83.4312 
0.000117897      5.10569      15.9146 
0.000268456      4.97443      177.580 
-4.28740e-05      2.33077      91.4751 
-7.51489e-05      2.88106     -101.817 
-1.07322e-05     0.601332     -3.81407 
-0.000215250      6.56948     -134.322 
0.000906567      5.43073      20.7042 
-1.07271e-05      5.01798      116.003 
-0.000237390      5.96940      138.056 
3.21730e-05      5.02621     -172.225 
-4.28698e-05      2.24982     -84.6442 
1.07239e-05      6.19879      130.551 
2.14451e-05      5.39268     -141.324 
-0.000226827      6.14457      39.5190 
-0.000410328      5.06427     -169.533 
3.21488e-05      6.55726     -43.4552 
4.28541e-05      5.22885      115.487 
0.000347811      6.29718      35.7598 
0.000355544      5.52033     -52.5073 
-0.000526978      5.13654     -151.639 
1.07122e-05      4.03521      85.0241 
1.07141e-05      1.12161      31.1390 
0.000695383      6.18055      138.936 
-0.000224015      3.24373      141.257 
-0.000208318      1.77508      30.4655 
-0.00117313      5.18059      171.229 
0.000150077      5.31769     -145.264 
0.000174166      4.72969      166.551 
-2.14136e-05      5.00650     -44.5145 
4.28463e-05      6.19771      130.682 
-8.57255e-05      4.69598      66.0003 
1.07126e-05      1.75103      91.9637 
1.07126e-05      5.16861     -159.146 
0.000478463      5.91385     -43.3556 
-9.73896e-05      4.71934     -107.130 
0.000151634      1.74771      112.897 
1.07056e-05      4.29421     -37.4303 
-1.07041e-05      3.94606     -45.8214 
-2.14156e-05      5.59129     -128.100 
-0.000285386      4.11060      179.024 
-3.21454e-05     0.600750     -2.86241 
-3.21270e-05      4.44558     -30.2564 
-1.07278e-05      6.26618     -49.0119 
6.45273e-05      4.82147     -6.55016 
4.29088e-05      2.14965      44.6231 
-6.44560e-05      5.11766     -27.9671 
3.21332e-05      5.20020     -159.160 
0.000417133      4.72597     -163.022 
-0.000183529      2.87480     -162.384 
0.000129050      5.54390     -156.394 
6.57794e-05      1.13018      30.8768 
-4.28353e-05      5.31263      18.4349 
-2.14406e-05      4.02150      51.5627 
3.21393e-05      1.82280     -144.828 
0.000530309      6.46480     -37.7739 
-1.07038e-05      5.02697      115.953 
0.000196269      5.53611      34.1780 
2.14300e-05      7.05028      134.368 
2.14147e-05      6.16899      145.434 
-2.14329e-05      4.21988      35.1589 
0.000162828      4.12346     -133.723 
0.000248353      5.61957     -114.832 
-8.63188e-05      4.64278     -60.7296 
-7.54066e-05      2.57099      103.496 
-3.21593e-05      2.24891     -84.8978 
-8.61203e-05      5.66117     -32.9602 
3.21809e-05      6.19666      130.812 
-5.39196e-05      2.33105      91.7208 
-0.000348855      5.50175      23.1165 
3.21879e-05      5.22456      115.388 
-1.07119e-05      6.25962     -49.0810 
-9.79193e-05      2.95169      116.131 
1.07127e-05      5.46240      127.562 
3.21632e-05      6.16075      145.381 
3.22378e-05      5.11531      15.8839 
0.000263337      7.05744      134.311 
2.14239e-05      1.11463     -80.7067 
1.07111e-05      3.49173     -1.80529 
0.000227621      5.91331     -121.163 
0.000748375      5.79275      29.1315 
-3.22746e-05      3.15000     -53.1301 
-7.55433e-05      5.71539     -26.6099 
-5.39126e-05      4.45422     -30.1916 
-0.000133625      4.72966      21.8464 
-1.07138e-05      1.26625     -24.7435 
5.38463e-05      6.50829      129.389 
-4.34243e-05      5.45996      39.0531 
-8.63059e-05      5.99611      139.803 
-0.00232714      5.77945      27.8509 
0.000196525      5.19086     -159.121 
6.49505e-05      6.16644      145.305 
4.30837e-05      5.46425      127.415 
-0.000766902      4.94414      6.73692 
5.39080e-05      4.70551     -71.7961 
1.07448e-05      1.78160      73.7012 
0.000275704      4.68788      23.7763 
3.27485e-05      5.32203      27.0465 
-6.48520e-05      4.70005      65.8890 
0.000162968      6.74959     -133.079 
-1.07477e-05      3.17788     -97.5946 
0.000109533      2.81514      146.592 
-2.15400e-05      3.65821      169.765 
2.15589e-05      6.20220      131.012 
-0.00259043      6.88887      137.883 
3.25131e-05      1.76921      73.9212 
2.15552e-05      4.70533     -77.8542 
0.000163348      5.32591     -145.325 
-1.07833e-05      4.64768     -60.6221 
-3.24669e-05      2.24804     -85.1517 
0.000174928      5.74282     -60.1314 
8.76737e-05      2.14255      44.8109 
-0.000230612      3.66629      169.947 
1.07962e-05      3.81418      68.1428 
5.43601e-05      6.39547     -140.011 
-3.24493e-05      7.10049      46.0271 
-0.000474255      5.20658     -117.697 
-1.08032e-05      1.35207     -53.7234 
2.16337e-05      5.22028      115.289 
-0.000130766      6.98304     -43.0850 
0.000185810      4.91044      153.644 
-8.76899e-05      3.20832      28.4822 
0.000331846      4.96444      177.576 
1.08134e-05      2.64038     -10.0331 
9.85958e-05      5.08532     -78.8889 
-0.000238349      6.70486     -43.7914 
-0.000287544      6.23001     -36.7779 
-3.27120e-05      2.99933     -43.3789 
4.38839e-05      5.07568      161.030 
2.17238e-05      5.18475     -67.7882 
6.83752e-05      1.51980     -140.339 
6.59587e-05      4.85924      8.16345 
-1.08414e-05      4.16677     -104.170 
-4.35091e-05      5.31403     -33.7200 
-6.56776e-05      2.86566      130.471 
0.000111314      6.20123      131.142 
0.000178762      3.82781     -132.989 
-0.000109450      7.10744      45.9691 
-5.48014e-05      3.14401     -53.2759 
0.000213231      1.53388     -140.290 
-3.27633e-05      4.94410      168.804 
-5.46722e-05      5.66414     -32.8203 
-0.000132856      4.72038      21.8916 
-2.18362e-05      2.89291     -101.970 
8.78943e-05      5.55707     -156.341 
0.00115052      7.04348      44.1947 
-5.52542e-05      4.81012      172.594 
-8.82241e-05      5.98847      139.741 
1.09126e-05      5.22506      115.143 
0.000146492      5.18097     -67.8906 
-6.61463e-05      4.70415      65.7778 
1.09198e-05      5.45631      127.479 
-3.30496e-05      6.26259     -51.4831 
0.000249251      1.66595     -7.93555 
-0.000398875      5.31681     -33.5705 
-0.000204867      5.12814     -8.63573 
-0.000445070      4.88000      180.000 
-4.40123e-05      2.24722     -85.4057 
-2.20236e-05      6.42135     -47.8403 
-1.09523e-05      4.76841      154.671 
5.54082e-05      2.32491     -21.7099 
0.000465331      5.63285     -114.882 
-3.31589e-05      4.46287     -30.1271 
-1.09699e-05      4.16434     -104.036 
0.000231585      6.24501      54.9103 
-1.09778e-05      5.96866      137.920 
-4.41146e-05      2.88434     -162.445 
2.23843e-05      2.12603     -138.814 
-7.75421e-05      5.97684      138.120 
-0.00120367      6.99035     -43.0291 
-0.000411185      4.88270     -9.19224 
2.21685e-05      6.40314     -140.068 
0.000157382      5.51425     -52.5898 
0.00264626      6.87309     -45.1179 
-0.000384081      5.07410     -169.554 
-0.000511122      5.65574     -32.8752 
-5.53596e-05      6.98216      43.3170 
0.000168710      6.74277     -133.017 
-1.10409e-05      4.95391      168.826 
-0.000103568      3.96440     -130.601 
2.22331e-05      5.22082      115.043 
-1.10429e-05      2.89500     -102.164 
1.10511e-05      4.83141     -6.53663 
-0.000111677      7.02866     -44.8847 
1.10571e-05      2.65023     -9.99546 
0.000179814      5.33414     -145.386 
-1.10610e-05      2.33137      91.9665 
-4.51467e-05      5.07638     -30.8089 
-0.000194672      6.13686      39.5784 
-0.000113095      2.87216      130.623 
7.97804e-05      4.53749     -80.8698 
-6.74343e-05      7.11439      45.9112 
3.36673e-05      1.75684      74.1442 
0.000341879      6.25404     -142.929 
1.11235e-05      6.45635      135.690 
-1.11268e-05      2.87179     -162.575 
-0.000229800      6.57664     -134.261 
-5.66773e-05      2.24644     -85.6600 
0.000159231      5.56623     -156.382 
-0.000137582      2.88134     -162.634 
0.000171676      5.18152     -159.082 
-0.000136171      6.98943      43.2608 
-2.25153e-05      3.01347     -43.3865 
-3.40621e-05      4.70685     -107.049 
0.000103432      2.82349      146.704 
0.000137221      5.73915     -59.9951 
0.000223333      5.40460     -19.0049 
-0.000161796      5.97609      137.984 
0.000105803      5.08340     -78.9995 
-0.000182792      5.71424      142.609 
5.66203e-05      4.41010     -89.6102 
-0.000751302      5.48862      23.0615 
-3.37808e-05      4.23540     -146.948 
2.26286e-05      6.45620      135.565 
-4.55850e-05      4.62917     -60.7771 
-5.65792e-05      4.70826      65.6668 
0.000154050      4.13760     -133.727 
-2.27344e-05      3.13804     -53.4222 
-0.000289550      3.67441      170.128 
-6.84526e-05      4.95586      168.713 
2.25316e-05      3.95127     -104.810 
-1.12321e-05      5.26308      67.4304 
0.000325841      4.58109      178.749 
-2.26258e-05      2.33174      92.2120 
0.000807357      7.06459      134.254 
-1.12559e-05      4.03243      51.1405 
0.000542194      5.92112     -43.2892 
3.39726e-05      4.90919      171.094 
-0.000467304      6.23802     -36.7229 
-4.55346e-05      5.87572     -57.5812 
-3.40216e-05      4.66170      175.941 
0.000118412      5.06622      160.993 
4.59765e-05      4.62958      124.617 
9.43469e-05      2.13546      45.0000 
1.13000e-05      5.37848     -59.6209 
0.000105433      4.86914      8.14674 
-1.13117e-05      3.19953      28.5676 
0.000157183      5.52784      34.2363 
-0.000531929      5.21124     -117.794 
-0.000832504      6.28761      136.224 
2.27386e-05      4.73203      166.434 
6.97051e-05      4.81657      116.246 
-0.000243709      7.02157     -44.9423 
8.06236e-05      6.25668      36.0274 
0.000104938      2.84803      37.1515 
3.44161e-05      5.04603     -172.255 
-1.13526e-05      4.47152     -30.0627 
1.13679e-05      6.46483      136.379 
4.59983e-05      3.94872     -104.670 
6.88062e-05      5.02487     -172.338 
-4.59327e-05      4.24378     -147.021 
1.13971e-05      6.26477      35.9736 
0.000161023      5.80149      29.0834 
0.000145274      6.33618     -127.304 
-1.14197e-05      4.80151      172.461 
0.000281755      4.90087      170.961 
-5.85903e-05      5.27615      67.3718 
-2.29661e-05      4.03871      51.0300 
0.000139153      4.96488      177.460 
0.000365227      4.69703      23.7272 
0.000834496      5.42137      20.7416 
0.000235642      5.34237     -145.447 
-2.31253e-05      3.21310      28.6389 
1.14613e-05      5.30858      26.9995 
-1.14907e-05      4.69503      65.7277 
2.30802e-05      6.46518      136.504 
-9.45484e-05      4.65172      175.932 
0.000227233      5.50818     -52.6724 
-3.49809e-05      4.81142      172.476 
8.25879e-05      4.41005     -89.7402 
8.30219e-05      6.01147      43.9216 
0.000110442      4.72231      166.405 
0.000492311      5.52684     -32.1372 
-8.26786e-05      4.69915      65.6166 
5.84538e-05      6.46557      136.629 
-0.000109206      5.87037     -57.6636 
-0.000189730      6.99672      43.2047 
0.000155249      6.73595     -132.955 
0.000392192      5.77915      29.0931 
0.000556010      5.03478     -172.353 
1.16230e-05      2.11851     -138.636 
-2.33398e-05      7.12136      45.8534 
-0.000144373      2.87868      130.774 
-1.16320e-05      3.02074     -43.2562 
0.000266949      4.86684     -12.5799 
0.000194284      6.24859      36.0813 
-0.000638013      5.08394     -169.574 
2.37598e-05      4.57866     -159.546 
1.16555e-05      2.66822     -9.70944 
2.34208e-05      1.59154     -140.609 
4.72363e-05      5.58922     -130.501 
0.000193941      5.57539     -156.424 
0.000120558      3.82050     -133.091 
-3.54697e-05      3.13002     -53.3132 
-5.90776e-05      4.79877      26.0845 
-5.91949e-05      4.25218     -147.095 
-5.94700e-05      4.95782      168.599 
-0.000216706      5.71238      142.468 
-1.17151e-05      4.04501      50.9199 
-7.22954e-05      4.62429     -60.8852 
1.17233e-05      3.03567      105.868 
3.53221e-05      7.02934      44.1931 
0.000159179      5.73415     -60.0816 
-2.39437e-05      3.20433      28.7246 
-4.83103e-05      2.24571     -85.9144 
2.37471e-05      6.20690      131.342 
7.20660e-05      1.60562     -140.560 
0.00133385      7.03651      44.1363 
-2.36564e-05      5.70104     -136.421 
0.000248144      6.18809      138.997 
4.78679e-05      3.96093     -104.773 
0.000348847      4.95489      177.455 
-4.83357e-05      5.08497     -30.7512 
0.000107991      6.46599      136.755 
0.000287415      5.17218     -159.042 
-7.38799e-05      4.12044      179.166 
3.60101e-05      5.17549     -67.7463 
2.37820e-05      5.62865     -114.789 
-0.000263573      5.71517     -136.418 
-0.000123687      2.89088     -162.693 
-0.000703900      7.02160     -44.8269 
6.00690e-05      3.03462      140.750 
0.000488799      5.64192     -114.839 
-0.000285569      5.30848     -33.6302 
-0.000212843      6.56967     -134.198 
3.65883e-05      4.82113      116.087 
1.19698e-05      1.64551      78.0755 
-0.000187251      6.12915      39.6380 
2.41988e-05      1.13877      30.6186 
-2.43422e-05      2.57614      103.011 
1.20005e-05      5.21239      114.844 
2.41132e-05      5.70202     -153.210 
-4.86752e-05      4.80283      172.342 
-0.000239241      4.78539      26.0296 
-2.43220e-05      4.05132      50.8101 
-0.000352372      3.68257      170.307 
2.44186e-05      5.39881      30.7453 
3.66106e-05      5.60982     -130.590 
-1.20827e-05      4.48386     -29.8241 
-1.20907e-05      2.33214      92.4575 
0.000621278      5.78789      29.0450 
6.23545e-05      1.63169      78.6901 
-4.91697e-05      4.26058     -147.168 
7.46418e-05      4.41001     -89.8701 
-0.000278221      4.89000      180.000 
3.72307e-05      2.67808     -9.67336 
5.03781e-05      3.03990      105.453 
0.000709259      6.74093      138.006 
-0.000354352      7.00401      43.1487 
6.27840e-05      2.84007      37.2734 
0.000203501      5.71545     -153.166 
0.000174767      3.03323      140.485 
-6.24745e-05      3.12405     -53.4602 
2.45343e-05      5.17171     -67.8489 
-6.23373e-05      3.95030     -130.586 
5.00587e-05      1.67586     -7.88835 
0.000215480      5.36451     -145.480 
0.000175172      6.46644      136.880 
1.22346e-05      5.20820      114.744 
0.000114125      3.95840     -104.633 
2.46019e-05      4.94228     -91.7392 
-2.46634e-05      4.65244      175.809 
1.22813e-05      6.45501     -132.489 
5.07370e-05      5.50407     -68.4692 
-1.23032e-05      4.96763      168.622 
3.79705e-05      6.00454      43.8529 
2.48388e-05      3.09588      81.2679 
-0.000242881      5.70445      142.407 
0.000128110      5.16624     -67.7043 
-0.000153746      5.11419     -151.631 
0.000178770      4.93199     -91.6266 
-1.24321e-05      5.28539      67.4135 
6.37124e-05      1.62742     -140.735 
7.63535e-05      5.61633     -130.668 
-5.03940e-05      4.81274      172.358 
-5.08737e-05      5.98352      138.048 
1.24445e-05      2.94432     -5.65250 
-1.24695e-05      2.34173      92.2026 
1.24652e-05      6.01868      43.8556 
-7.57436e-05      4.87444     -9.32705 
-0.000849002      6.88145      137.827 
-8.86581e-05      5.21591     -117.892 
0.000128426      5.50212     -52.7552 
-0.000102777      2.88522      130.924 
-2.52644e-05      3.24530      141.506 
-7.72781e-05      5.08151     -30.9057 
-2.52978e-05      4.05765      50.7007 
5.05098e-05      6.26202     -142.984 
-7.74276e-05      4.61944     -60.9936 
7.69551e-05      3.10730      81.1136 
-7.69359e-05      4.64247      175.800 
-1.25862e-05      4.56001     0.125648 
-0.000296936      6.60337      139.483 
-5.13908e-05      4.28280     -147.200 
9.04980e-05      6.24051      36.1354 
-3.85101e-05      4.96961      168.509 
3.84252e-05      6.72914     -132.892 
5.14112e-05      1.47628     -139.946 
5.16568e-05      3.81367     -132.981 
1.26449e-05      1.65170     -165.627 
3.85197e-05      2.12840      45.1904 
-1.26673e-05      4.74267      21.9136 
1.26907e-05      4.87904      8.13010 
2.57063e-05      1.63573      101.997 
5.15322e-05      6.44795     -140.285 
1.27162e-05      5.52123     -28.3289 
-2.58176e-05      2.34214      92.4470 
-2.58055e-05      2.24502     -86.1689 
0.000155821      4.85927     -12.7206 
1.27503e-05      4.21850      168.930 
-0.000155903      4.86458     -9.34614 
7.80059e-05      6.24802     -143.002 
-0.000103690      6.24604     -36.6681 
-3.90729e-05      5.34453     -68.7162 
3.87641e-05      5.53004     -28.2797 
-1.28233e-05      4.49628     -29.5868 
-5.20609e-05      4.57001     0.125373 
3.90054e-05      5.40135     -18.9046 
2.58409e-05      6.44088     -132.483 
-1.28513e-05      6.41394     -47.7804 
-9.12712e-05      5.22943     -117.937 
0.000104341      6.46692      137.005 
0.000195846      7.07176      134.198 
-5.21353e-05      4.80418      172.224 
7.82741e-05      3.03191      140.219 
-1.29153e-05      1.27945      148.422 
2.61205e-05      4.22831      168.956 
-3.91119e-05      4.28323      14.3282 
-9.13249e-05      5.31129     -33.4806 
-0.000117871      5.10542     -169.504 
1.29585e-05      4.15173     -133.731 
-3.91517e-05      5.09377     -169.595 
1.29681e-05      4.42000     -90.0000 
2.60231e-05      6.34225     -127.376 
1.29842e-05      1.61805      79.3151 
-2.61649e-05      3.95682     -130.696 
-1.30354e-05      3.23748      141.395 
-2.62092e-05      2.90043     -162.752 
3.94774e-05      4.70619      23.6782 
2.63372e-05      5.32302     -25.3615 
2.62842e-05      3.40658     -15.6682 
-1.31117e-05      3.11602     -53.3508 
-1.31097e-05      5.05016     -161.529 
1.31194e-05      4.41000     -90.0000 
-2.63691e-05      4.92444      174.289 
-1.31743e-05      6.12145      39.6977 
1.31659e-05      5.92841     -43.2229 
-1.31688e-05      4.07172      50.6809 
-1.31702e-05      6.24401     -36.7965 
1.31954e-05      5.58456     -156.465 
1.32138e-05      4.91074      170.979 
1.32074e-05      1.67505      4.45117 
-1.32184e-05      4.79438      25.9771 
1.32414e-05      1.46219     -139.994 
