! Center RA: 03 39 30.93779,  Dec: -01 46 35.80420 (2000.0)
! Established model.
! Flux (Jy) Radius (mas)  Theta (deg)  Major (mas)  Axial ratio   Phi (deg) T \
! Freq (Hz)     SpecIndex
 0.0271778     0.270740      85.7636 
0.00627855     0.260192      87.7974 
0.00164826     0.483011      62.9044 
 0.0104003     0.487545      64.4861 
 0.0171193     0.716938      67.0113 
 0.0122793     0.260768      85.6013 
0.00151360     0.703847      67.4428 
0.00200635     0.720902      66.2796 
0.00810219     0.492443      66.0375 
0.00914260     0.250200      87.7094 
0.000572010     0.470106      51.9112 
0.00328060     0.506952      67.9887 
0.00267929     0.468615      50.1944 
0.00109307     0.700071      68.1986 
0.000532096     0.696419      68.9625 
0.00104183     0.692893      69.7343 
0.00463552     0.512640      69.4440 
0.000510050     0.674685      78.0239 
0.000506203     0.475079      49.2679 
0.000504138     0.680661      79.8457 
0.000500447     0.707743      66.6951 
0.000984838     0.467547      48.4682 
0.000494384     0.687314      81.6341 
0.000489711     0.711758      65.9558 
0.000485554     0.685930      82.4606 
0.00186960     0.474236      47.5638 
0.000479040     0.695845      82.5686 
0.000943569     0.715891      65.2249 
0.00649788     0.835225      73.3008 
0.000871856     0.522015      69.8293 
0.000930015     0.694622      83.3865 
0.00179261     0.528110      71.2220 
0.000907357     0.706824      64.8852 
0.000451889     0.703491      84.2894 
0.000885516     0.481041      46.6847 
0.000881530     0.702567      85.1009 
0.000871984     0.711126      64.1556 
0.00169261     0.473814      45.8551 
0.000430052     0.701783      85.9144 
0.00206138     0.250000      90.0000 
0.000425221     0.575674      72.8241 
0.000422967     0.711758      85.9717 
0.00124291     0.715542      63.4349 
0.00163210     0.711126      86.7755 
0.000410070     0.566127      72.5252 
0.00274147     0.480833      45.0000 
0.000787485     0.720069      62.7232 
0.000769192     0.585235      73.1132 
0.00116154     0.710634      87.5805 
0.00189350     0.260000      90.0000 
0.00108772     0.563205      73.4956 
0.00112047     0.724707      62.0205 
0.000747126     0.720278      88.4089 
0.00145504     0.487955      44.1697 
0.00178454     0.720069      89.2043 
0.00222645     0.572800      73.7798 
0.00338194     0.260192      92.2026 
0.00171483     0.729452      61.3269 
0.00205708     0.481041      43.3153 
0.00134760     0.720000      90.0000 
0.00161895     0.838153      72.6460 
0.00342476     0.488365      42.5104 
0.000968123     0.730069      90.7848 
0.00124414     0.734302      60.6422 
0.00183540     0.730274      91.5694 
0.00427943     0.260768      94.3987 
0.00176232     0.841190      71.9958 
0.00168437     0.739256      59.9667 
0.00171634     0.730616      92.3533 
0.00196789     0.495782      41.7295 
0.00175045     0.570088      74.7449 
0.00133839     0.844334      71.3505 
0.00700210     0.741080      93.0941 
0.00282620     0.489183      40.8554 
0.00123843     0.744312      59.3003 
0.00574132     0.261725      96.5819 
0.00192371     0.847585      70.7100 
0.00367990     0.731095      93.1364 
0.000240961     0.503289      40.9717 
0.00113222     0.813941      63.7498 
0.00353581     0.496790      40.1009 
0.000450775     0.749467      58.6429 
0.00183111     0.850941      70.0744 
0.000835624     0.740945      58.2405 
0.000408290     0.567539      75.7189 
0.000963716     0.818413      63.1219 
0.00384112     0.504480      39.3693 
0.000573166     0.746257      57.5877 
0.000189186     0.570701      78.8870 
 0.0105765     0.800999      92.8624 
0.00503134     0.263059      98.7462 
0.00138413     0.854400      69.4440 
0.000868449     0.737835      57.1715 
0.000179770     0.575587      82.0107 
0.000175517     0.574282      82.9987 
0.000496149     0.822982      62.5009 
0.000333563     0.573149      83.9910 
0.000163241     0.498197      38.4802 
0.000162106     0.729452      56.7456 
0.00319654     0.512250      38.6598 
0.00218878     0.721110      93.1798 
0.00105191     0.734983      56.0937 
0.00132243     0.857963      68.8187 
0.000157237     0.572189      84.9869 
0.000445707     0.827647      61.8868 
0.000297311     0.580775      87.0391 
0.000148863     0.571402      85.9858 
0.000274350     0.580345      88.0251 
0.00130515     0.726705      55.6539 
0.000137641     0.570789      86.9872 
0.000396974     0.832406      61.2797 
0.00147278     0.526308      38.8298 
0.00131509     0.861626      68.1986 
0.000382361     0.580086      89.0122 
0.00373959     0.711126      93.2245 
0.000471810     0.570088      88.9949 
0.000570372     0.837257      60.6795 
0.000471154     0.732393      55.0080 
0.00162743     0.272947      98.4270 
0.000845530     0.492037      37.5686 
0.000225043     0.718471      55.2040 
0.00203148     0.534135      38.1572 
0.000434493     0.570000      90.0000 
0.00159682     0.724224      54.5543 
0.00109545     0.865390      67.5839 
0.000392678     0.842200      60.0864 
0.000686886     0.570088      91.0051 
0.000387258     0.281603      96.1155 
0.00190216     0.291548      95.9061 
0.000693618     0.570351      92.0096 
0.00347275     0.548179      38.3333 
0.000344152     0.847231      59.5002 
0.00115010     0.730069      53.9149 
0.000825841     0.570789      93.0128 
0.000370325     0.852350      58.9210 
0.00107696     0.869253      66.9745 
0.00150271     0.722011      53.4475 
0.00125902     0.301496      95.7106 
0.00123693     0.500000      36.8699 
0.000497287     0.250000      106.260 
0.00145411     0.571402      94.0142 
0.000260007     0.857555      58.3487 
0.000894477     0.701142      93.2705 
0.000287514     0.862844      57.7835 
0.000994548     0.728011      52.8153 
0.000389212     0.246982      111.371 
0.000439531     0.868217      57.2251 
0.000330275     0.873212      66.3706 
0.000182125     0.311448      95.5275 
0.00675402     0.941913      86.3478 
0.00132158      1.47221      76.2469 
0.00108629      1.29124      82.4347 
0.00120799      1.46986      76.6256 
0.00162058      1.29259      81.9953 
0.00110480      1.46758      77.0054 
0.000516604      1.46537      77.3864 
0.00212574      1.29402      81.5568 
0.000167452      1.46328      79.7652 
0.000165102      1.46154      80.1510 
0.000324456      1.45986      80.5377 
0.00579709     0.932631      85.6955 
0.000159086      1.45825      80.9252 
0.000312229      1.45523      81.7029 
0.000305299      1.46113      82.9236 
0.000150036      1.47462      75.8695 
0.000442874      1.45993      83.3131 
0.000144670      1.47963      75.1185 
0.000286011      1.45880      83.7032 
0.000279189      1.45774      84.0939 
0.000277628      1.48489      74.3726 
0.00111394      1.29553      81.1193 
0.000536642      1.45674      84.4851 
0.000135476      1.48081      73.5231 
0.000132966      1.48368      73.1528 
0.000389170      1.45582      84.8768 
0.000386378      1.48661      72.7839 
0.000618930      1.45496      85.2691 
0.000125186      1.48960      72.4165 
0.000364940      1.49265      72.0506 
0.000813644      1.45417      85.6617 
0.000236085      1.49576      71.6862 
0.000343107      1.49893      71.3233 
0.000867015      1.45344      86.0548 
0.000331367      1.50217      70.9620 
0.00435462      1.50546      70.6022 
0.000103656      1.45279      86.4483 
0.000102866      1.44170      87.2170 
0.00125749      1.44125      87.6141 
0.000518875      1.44087      88.0114 
0.00255363      1.43087      87.9975 
0.000380233      1.46492      85.3013 
0.00128297     0.933435      85.0834 
7.10869e-05      1.46414      85.6913 
0.000426699      1.47489      85.3331 
0.00151762      1.49603      70.4750 
0.000451480      1.42088      87.9834 
0.000164145      1.30115      82.4927 
0.000212160      1.48408      85.7493 
0.000209599      1.41089      87.9691 
0.000775819     0.310161      88.1524 
0.00305016     0.460435      34.3803 
0.00265127     0.310000      90.0000 
0.00403949     0.468722      33.6901 
0.00359531     0.300167      91.9091 
0.00403287     0.477074      33.0239 
0.00401422     0.300666      93.8141 
0.00302753     0.485489      32.3807 
0.00339583     0.292746      97.8533 
0.00145346     0.490918      33.3664 
0.00133769     0.499300      32.7352 
3.62703e-05     0.496488      62.4027 
3.52250e-05     0.501199      61.3895 
   1.00127    0.0100000      0.00000 
  0.140552    0.0141422      45.0001 
 0.0300585    0.0200000      0.00000 
0.00680064    0.0223607     -26.5649 
0.00340041    0.0316228      108.435 
0.00662658    0.0412311      104.036 
 0.0129311    0.0360555     -33.6900 
 0.0156770    0.0538517      111.801 
 0.0180125    0.0500000     -36.8699 
 0.0228926    0.0670820      116.565 
 0.0344648    0.0640312     -38.6598 
0.00535726    0.0721110      123.690 
 0.0360990    0.0806226      119.745 
 0.0666682    0.0781025     -39.8055 
 0.0189400    0.0860233      125.538 
 0.0369322    0.0943398      122.005 
 0.0283288    0.0848528     -45.0000 
 0.0362361    0.0894427      116.565 
 0.0387937    0.0781025     -50.1944 
 0.0149232    0.0984886      113.962 
 0.0238672    0.0948683      108.435 
0.00356330    0.0860232     -54.4623 
 0.0273101    0.0806226     -60.2551 
 0.0132120    0.0921954      102.529 
0.00670328     0.101980      101.310 
 0.0151146    0.0761577     -66.8014 
 0.0188721     0.100499      95.7106 
 0.0172565    0.0854400     -69.4439 
0.00849924     0.100000      90.0000 
0.00780521    0.0824621     -75.9637 
0.000248589     0.134536      131.987 
0.000490494     0.101980      78.6901 
0.000241935     0.148661      137.726 
0.000239891     0.104403      73.3008 
0.000237764     0.156205      140.194 
0.000469664     0.107703      68.1986 
0.000232089     0.172047      144.462 
0.000230153     0.111803      63.4349 
0.000453434     0.180278      146.310 
0.000671806     0.116619      59.0363 
0.000220570     0.188680      147.995 
0.000433889     0.122066      55.0080 
0.00925528     0.197231      149.534 
0.000422929     0.128063      51.3402 
0.00120874     0.134536      48.0128 
0.00112458     0.141421      45.0000 
0.00104756     0.148661      42.2737 
0.000503106    0.0894427     -63.4349 
0.00144413     0.156205      39.8056 
0.000163381    0.0943398     -57.9946 
0.000634812     0.127279     -45.0000 
0.000302652     0.134536     -41.9872 
0.00144852     0.164012      37.5686 
0.000295246     0.142127     -39.2894 
0.000145136    0.0824620     -104.036 
0.000143566     0.150000     -36.8699 
0.000141805    0.0854400     -110.556 
0.000280189     0.158114     -34.6952 
0.000138083     0.130384     -147.529 
0.000272813     0.166433     -32.7352 
0.000914868     0.172047      35.5377 
0.000397940     0.138924     -149.744 
0.000133718     0.174929     -30.9638 
0.00234188     0.183576     -29.3578 
0.000378523     0.147648     -151.699 
0.00127491     0.180278      33.6901 
0.000241640     0.156525     -153.435 
0.000461435     0.165529     -154.983 
0.000327273     0.174642     -156.371 
0.00472672     0.183576      29.3578 
0.00360715     0.183848     -157.620 
0.00529607     0.188680     -32.0054 
0.00396395     0.202485      147.095 
0.000866069     0.180278     -160.560 
0.000863492     0.208087      144.782 
0.00109754      1.69956      64.1888 
0.000205356      1.69056      64.0412 
0.000197807      1.28845      74.2379 
0.000316244      1.28445      73.2580 
0.000399700      1.28577      74.6667 
0.000178066      1.28160      73.6861 
0.000686085      1.28950      66.2180 
0.00138251      1.70394      63.8861 
0.00302706      1.83439      72.5528 
0.000443707      1.28316      75.0973 
0.00192369      1.28860      65.2249 
0.000573034      1.28062      75.5297 
0.000547737      1.27816      75.9638 
0.000891215      1.71732      63.7334 
0.000490227      1.27577      76.3995 
0.00193819      1.04924      100.989 
0.00158651      1.39607      95.3431 
0.000465952      1.40698      95.7106 
0.00145128    0.0670820     -116.565 
0.000404439    0.0721110     -123.690 
0.000211323      1.05119      101.524 
0.000255212    0.0860232     -125.538 
4.88889e-05      1.03942      101.094 
0.00208631      4.90202      53.2937 
5.59149e-05      4.38416      53.6267 
0.000570168      4.37824      53.7321 
0.000299072      4.90800      53.2001 
0.000148577      4.91400      53.1068 
0.000143092      4.92800      53.0836 
0.000495282      4.37233      53.8377 
0.000257434      4.92001      53.0136 
9.13396e-05      4.93401      52.9908 
0.000263027      5.34605      53.3659 
0.000167715      4.36866      54.1269 
0.000244339      5.35407      53.4297 
4.13800e-05      4.40459      52.1935 
4.06278e-05      4.45314      50.3756 
4.01716e-05      4.45953      50.2767 
3.99124e-05      4.36281      54.2333 
0.000406219      5.36004      53.3439 
7.87599e-05      4.46593      50.1780 
0.000154085      4.35929      54.5234 
3.87073e-05      4.47876      49.9815 
0.00444845      4.49165      49.7861 
3.73547e-05      4.90637      56.0508 
0.000144065      4.35349      54.6306 
0.000107222      5.06028      50.7743 
3.64940e-05      4.90080      56.1478 
7.13771e-05      4.39847      52.2964 
3.58371e-05      4.90355      56.3099 
3.54729e-05      4.64011      56.0702 
3.50624e-05      4.89801      56.4073 
3.48384e-05      4.62897      56.2756 
6.82318e-05      4.61790      56.4820 
0.000195635      5.36601      53.2582 
0.000304811      5.05253      50.7026 
3.36896e-05      4.89248      56.5048 
3.35823e-05      4.34771      54.7381 
3.34304e-05      4.89009      53.4816 
3.32776e-05      4.61239      56.5856 
3.29467e-05      4.60689      56.6894 
3.27181e-05      4.39420      52.5825 
3.26006e-05      4.88984      56.7649 
3.23796e-05      4.33866      55.1378 
6.41864e-05      4.60140      56.7934 
0.000207171      4.88436      56.8630 
0.000146994      4.38813      52.6862 
0.000119586      4.32666      56.3099 
6.21916e-05      4.59593      56.8977 
3.10686e-05      4.87016      53.6007 
0.000121066      5.37200      53.1728 
6.06492e-05      4.59048      57.0023 
8.73680e-05      4.59344      57.1748 
2.91991e-05      4.86424      53.6955 
0.000169237      5.39802      52.9815 
8.37504e-05      4.58803      57.2798 
0.000175561      4.85832      53.7905 
0.000103887      4.33499      56.3832 
0.000269588      4.89274      56.9270 
2.70928e-05      4.57421      57.3175 
5.31111e-05      4.58263      57.3850 
5.33654e-05      5.40404      52.8969 
0.000231409      4.37800      53.0778 
0.000213118      5.04480      50.6307 
2.61477e-05      5.42409      52.7921 
5.17720e-05      4.57725      57.4904 
0.000125846      5.43015      52.7080 
7.30346e-05      4.38208      52.7901 
9.89602e-05      4.56882      57.4230 
0.00148937      5.45023      52.6045 
0.000116398      4.56344      57.5288 
4.65500e-05      4.34332      56.4563 
0.000148686      4.37604      52.8944 
0.000108223      4.55808      57.6349 
4.34080e-05      4.35165      56.5290 
4.23933e-05      4.85242      53.8858 
0.00101187      4.57079      58.3268 
0.000131770      4.90112      56.9908 
0.000166911      5.03707      50.5585 
2.04921e-05      4.36000      56.6015 
2.03299e-05      4.55274      57.7412 
7.63862e-05      4.86640      53.8601 
1.99670e-05      4.36835      56.6737 
5.83836e-05      4.54428      57.6739 
0.000212905      4.37001      52.9990 
1.92969e-05      4.37671      56.7456 
3.72473e-05      4.38508      56.8173 
3.63728e-05      4.53894      57.7805 
1.81321e-05      5.30323      54.3618 
0.000600812      5.45818      52.6682 
3.52490e-05      4.39345      56.8887 
1.75982e-05      5.29741      54.4497 
1.75174e-05      4.52515      57.8201 
3.35001e-05      4.90951      57.0544 
1.72048e-05      4.50290      57.7923 
5.04186e-05      5.29396      54.6888 
0.000127346      4.36400      53.1038 
3.34676e-05      4.40183      56.9598 
6.42955e-05      4.49444      57.7244 
0.000171828      5.02935      50.4862 
4.70711e-05      4.41022      57.0306 
4.74234e-05      5.28818      54.7772 
4.03893e-05      5.28242      54.8658 
5.79030e-05      4.41861      57.1012 
4.37027e-05      5.28486      55.0169 
2.91997e-05      4.48599      57.6562 
0.000121967      4.35800      53.2090 
0.000107228      5.27914      55.1058 
4.07164e-05      4.42701      57.1715 
0.000295672      4.43541      57.2415 
1.25191e-05      5.27342      55.1949 
8.95125e-05      4.35202      53.3144 
0.000207939      5.27595      55.3461 
0.000240891      4.44383      57.3113 
0.000248187      5.02164      50.4136 
4.63916e-05      4.24382      55.5610 
3.19671e-05      4.23558      55.4845 
3.00419e-05      4.22734      55.4077 
0.000512955      4.86273      54.1199 
0.000161042      4.39609      52.7652 
0.000178366      4.86499      54.2843 
0.000181204      4.39005      52.8691 
2.41429e-05      4.86729      54.4486 
2.38695e-05      4.86625      54.8729 
6.97827e-05      4.86803      55.4612 
0.000190805      4.38402      52.9733 
2.26925e-05      4.87062      55.6248 
2.24531e-05      5.35800      53.1943 
4.43553e-05      4.86763      55.8855 
6.55765e-05      5.36400      53.1087 
2.16916e-05      4.86474      56.1466 
0.000224461      5.01394      50.3407 
0.000264333      4.85927      56.6697 
0.000382160      5.44229      52.5405 
7.84456e-05      4.85916      54.3801 
0.000241639      4.86763      56.7343 
5.65052e-05      4.37404      53.3659 
5.35086e-05      4.37200      53.1825 
1.76928e-05      4.36808      53.4711 
6.94160e-05      4.47754      57.5877 
9.60274e-05      4.36602      53.2876 
1.68400e-05      4.46910      57.5190 
0.000122036      4.45225      57.3808 
7.08633e-05      4.85687      54.2155 
9.26824e-05      4.87599      56.7988 
0.000226582      5.00625      50.2677 
7.04873e-05      4.36005      53.3929 
2.63328e-05      4.19447      55.0975 
0.000362215      4.18628      55.0192 
2.22682e-05      5.30094      54.2110 
1.08216e-05      5.29510      54.2988 
1.05431e-05      5.29160      54.5378 
0.000276587      4.99856      50.1944 
1.02815e-05      5.28580      54.6261 
0.000168855      4.84991      54.7370 
0.000130328      4.85232      54.9016 
1.58354e-05      4.85477      55.0660 
4.59735e-05      4.84905      55.1629 
3.03043e-05      4.85092      56.6048 
2.11871e-05      4.99088      50.1209 
-0.00490685      1.82584      7.55317 
-0.000960636      2.86400     -8.83742 
-0.000995766      3.37037     0.850024 
-0.00122505      1.89763      17.4801 
-0.00188404      2.85412     -8.86826 
0.00132534      4.44055      6.72491 
-0.00151568      3.38037     0.847509 
-0.00120360      1.81593      7.59464 
-0.00112263      1.88809      17.5713 
0.00116376      4.45048      6.70984 
-0.00121006     0.796994      72.4744 
-0.000125086      3.38024     0.678026 
-0.000513043      2.84424     -8.89932 
-0.00312640     0.740945     -111.371 
-0.00186224      5.69217      132.152 
0.000599605      1.14739      6.50563 
-0.000561394      3.39037     0.845010 
-0.000785851      4.85281      5.55787 
0.00120891      2.36730      14.6820 
-0.000610590      3.68392     -85.0168 
-0.000527378      3.45245     -167.453 
-0.000401146      3.52115      1.46463 
-0.000153702      3.68307     -85.1718 
-0.00131195      3.34724      176.231 
-0.000251558      2.46587      176.047 
-0.000690830     0.806536      72.6884 
-0.000457424      3.36037    -0.852552 
-0.000145932      1.87555      17.3722 
9.87942e-05      5.49758      5.74170 
0.000272307      4.30155      174.263 
0.000884290      4.46041      6.69483 
0.00120261      4.06841     -6.77566 
-0.000711980      3.36204      109.459 
-0.000881508      2.47584      176.063 
-4.87840e-05      3.53115      1.46048 
0.00111390      5.09566      92.6996 
0.000320624      4.05848     -6.79231 
0.000138611      5.50753      5.73130 
0.000497724      5.64987      6.81055 
-9.47099e-05      1.47665     -174.560 
0.000405828      3.66030      60.0027 
-0.000180898      1.51212      3.03270 
-0.000139578      3.44269     -167.417 
-0.000651455      2.47455     -114.597 
-0.000136973      3.37024     0.680038 
-4.62061e-05      1.86601      17.4639 
-0.000333710      4.20214     -170.134 
-0.000835701      1.46670     -174.523 
-0.000382800      4.64904     -48.8373 
-0.000131084      3.54141      1.61810 
-0.00119604      4.89580      9.40460 
0.000752878      1.19670     -138.048 
0.000375858      5.09614      92.8119 
-8.71283e-05      1.89336      31.1713 
8.69826e-05      2.55143      7.43141 
-0.000655969      4.19229     -170.111 
0.000166834      5.65106      6.91123 
8.64969e-05      1.43590     -95.1944 
-0.000562477      1.62003     -37.2236 
0.000286363      5.64307      6.20564 
0.000126946      1.03817     -97.1935 
-0.000495954      3.36024     0.682061 
-0.000239384      5.70601     -30.4299 
-0.000232063      3.22616     -7.30124 
0.000392521      5.85773     -136.799 
-4.22114e-05      1.51954      30.4464 
0.000754636      3.65531      60.1385 
-0.000272889      3.46006     -167.651 
-0.000737286      2.54810      47.5448 
-0.000704423     0.809568      72.0127 
-0.000280592      1.58051     -91.4502 
-8.09511e-05      2.04377      26.4397 
-0.000119580      1.52210      3.01279 
0.000368803      1.43684     -95.5916 
-4.11582e-05      5.00640     -14.8135 
-0.000773348      3.23608     -7.27874 
4.10746e-05      1.03947     -97.7403 
-0.000542530     0.860233      54.4623 
-0.000193078      1.52817      30.2564 
-0.000267892      4.99673     -14.8428 
0.000230086      2.17559     -173.136 
4.03521e-05      1.02956     -97.8153 
-0.000413938      1.57178     -23.6294 
4.00498e-05      1.42664     -116.206 
0.000114646      2.56135      7.40248 
0.000368967      2.87138     -71.3126 
-0.000290231      4.03193     -85.5904 
0.000268705      1.03097     -98.3659 
-0.000115701      6.38001      36.7801 
0.000185604      5.64416      6.30656 
-0.000225114      3.89622     -93.2369 
0.000641154      4.47035      6.67989 
7.81600e-05      1.43108     -116.565 
0.00197978      4.64407      168.448 
0.000248121      5.59151     -139.788 
-7.65724e-05      5.06569     -2.71555 
0.000661494     0.787909      156.038 
-0.00150945      4.78151      88.5619 
-0.000254190      2.47873     -114.807 
0.000665478      4.48402     -130.296 
-0.000390066      2.48652      175.849 
-0.000398789      5.21676     -11.6115 
0.000148235      6.21341      121.106 
3.78948e-05      6.14772      83.6495 
0.000111401      1.43558     -116.922 
-0.000538826      1.58028     -91.0878 
0.000321233      6.14884      83.5569 
0.000660753      1.29835      139.686 
-0.000109345      3.53204      178.053 
7.22201e-05      2.35763      14.7436 
-6.94705e-05      2.03039      26.9437 
0.000412210      1.02259     -99.0018 
-0.00119260      6.01349      77.9052 
0.000103908      2.24350      13.6646 
-0.000273836      4.43636     -63.4927 
-0.000444106      5.86285      103.112 
-3.59712e-05      6.37200      36.8339 
0.000205623      1.44014     -117.277 
0.000135300      2.57126      7.37377 
0.000102687      6.22198      121.059 
-0.000100690      2.36373      113.962 
-0.000571194      3.90565     -93.0822 
-0.000401220      1.60602     -37.1553 
-0.000568093      3.34791      176.061 
-0.000202095     0.807527     -97.8291 
6.93335e-05      6.24501      68.4882 
-0.000382127      3.95828     -174.491 
0.000524142      3.81644     -145.894 
-0.000310359      1.54185      30.3902 
-0.000100734      6.37800      36.9058 
-0.000343295      3.45029     -167.615 
0.000433719      5.86502     -136.865 
-0.000343508      6.37273     -28.6966 
-6.84788e-05      4.88594      9.42377 
-0.000257773      1.58095     -23.4841 
-0.000802891      5.69149      132.294 
-0.000578743      3.23187      91.9505 
-0.000130946      3.54203      178.059 
0.000284257      1.84318     -115.036 
0.000230420      6.28676      71.1616 
-9.54953e-05      4.85186      5.44033 
3.37772e-05      6.24135      68.5736 
0.000129164      2.02418      3.68228 
0.000678350      3.59156      67.5765 
-0.000596389      1.45674     -174.485 
6.66774e-05      2.84861     -55.5847 
0.000441996      6.14997      83.4643 
0.000269479      2.88406     -71.1881 
-0.000653175      4.88431      9.30804 
-0.000161782      3.35024     0.684097 
-3.34200e-05      2.47388     -115.115 
6.55397e-05      2.01420      176.299 
-6.52716e-05      4.98706     -14.8722 
0.000394788      6.25432      68.5218 
6.59396e-05      4.01289      68.3577 
-0.000181734      1.76570     -75.5702 
-6.52091e-05      2.87388     -8.80679 
-9.56293e-05      2.31366     -40.0909 
-3.28929e-05      5.69739     -30.4808 
-6.48958e-05      5.20697     -11.6336 
-6.44748e-05      3.90620     -93.2286 
-0.000305914      2.47814     -115.324 
0.000154763      2.84297     -55.7510 
0.000847641      1.28425      139.737 
9.27684e-05      4.39200     -53.0518 
6.45294e-05      4.02588      68.2779 
0.000268987      1.44475     -117.629 
0.000179096      1.20416     -138.366 
0.000176728      2.23379      13.7252 
0.000459508      1.01435     -99.6480 
-0.000186491      4.23558      162.977 
-0.000327310     0.806226     -97.1250 
-0.000462984     0.854459      55.0080 
0.000271860      4.02959      68.1458 
0.000154508      2.88586     -46.4040 
-0.000149031      2.02148      27.0721 
-3.15795e-05      4.44038     -160.667 
0.000567760      4.48028      6.66501 
-0.000697324      5.20899     -11.7414 
0.000239668     0.778781      155.739 
-3.13917e-05      3.32615      67.3669 
-0.000778925      4.78127      88.6817 
-0.000225736      4.79652     -158.088 
-0.000250688      4.44083     -63.3773 
0.000810071      5.59271     -139.932 
-0.000146384      2.86248     -8.63964 
-5.98278e-05      6.37001      36.9598 
0.000496432      5.37194      62.3855 
-0.000149411      3.55203      178.064 
-0.000258905      2.96435      139.378 
0.000140524      6.22714      121.137 
-3.09300e-05      3.37037    -0.850022 
-9.18703e-05      4.42018      90.5185 
0.000381706      3.81379     -145.685 
-0.000117209      4.03272     -85.4487 
-0.000268327      4.38617      125.067 
-0.000119422      2.54136      47.7111 
-6.04432e-05      3.37024    -0.680036 
-5.97604e-05      3.34024     0.686145 
0.000116265      4.16011      142.717 
-0.000141486      3.32232      67.5261 
-8.70789e-05      4.42028      90.6481 
2.99124e-05      4.10946      67.9915 
2.98604e-05      4.25625     -67.7736 
-0.000228499      4.43028      90.6467 
-0.000332925      4.24514      163.016 
0.000113830      2.01420      3.70054 
-5.84964e-05      2.49650      175.865 
-0.000422971      3.38024    -0.678024 
-0.000194438      1.59013     -23.3405 
0.000115769      2.89277     -46.2606 
0.000336579      6.15111      83.3718 
8.51180e-05      2.58118      7.34528 
-5.81622e-05      6.53429      64.1408 
0.000443904      4.26551     -67.8244 
5.75153e-05      1.83897     -114.753 
-2.91344e-05      3.38037    -0.847508 
0.000734284      2.90271     -125.607 
0.000576159     0.792023      155.376 
-2.86888e-05      3.23736     -7.45430 
2.85820e-05      5.46594     -44.9259 
-0.000371142      6.52966      64.0236 
-0.00104786      4.38043      124.960 
0.000111889      5.45886     -45.0000 
-0.000128182      2.54876      47.8624 
0.000215739      4.10573      68.1208 
-0.000396808      2.48244     -115.533 
-0.000209821      3.94833     -174.477 
-5.60406e-05      3.56237      177.909 
0.000476522      4.48288     -130.477 
2.82002e-05      5.20663     -133.288 
2.81897e-05      2.69216     -165.809 
5.61608e-05      1.14477     -51.0275 
-0.000881732      3.96914     -136.940 
-0.000567097      4.99217     -135.000 
-8.14807e-05      4.97740     -14.9018 
0.000550951      2.87863     -46.2668 
-0.000209430      3.44052     -167.580 
-5.55070e-05      4.74220      143.662 
-5.42837e-05      6.36396     -28.7398 
0.00138233      3.80816     -145.809 
0.000133329      4.63427      168.423 
0.000282353      4.07835     -6.75908 
0.000262663      5.21349     -133.368 
-5.45227e-05      3.33024     0.688205 
0.000857529      1.95888     -116.042 
-0.000282374      5.87259      103.090 
0.000625758      1.45825     -117.795 
-0.000447482      3.23155      91.7733 
0.000157501      2.68246     -165.757 
0.000480726      5.43766     -45.0745 
-0.000262758     0.803243      71.1139 
-0.000153177      3.70304      34.5484 
8.04235e-05      1.12446     -51.4993 
-0.000104827      3.57237      177.915 
-0.000805744      4.73415      143.590 
-0.000404804      4.43041      90.7760 
-2.68277e-05      3.58370     -77.5926 
2.68287e-05      1.44941     -117.979 
-7.73195e-05      5.35280     -8.05441 
5.33565e-05      4.14566     -156.094 
-0.000367651      5.32455      92.3680 
7.76555e-05      2.59110      7.31701 
7.67438e-05      1.21264     -139.347 
-0.000119801      2.87237     -8.60967 
0.000425798      6.15228      83.2793 
0.000102757      6.48390      109.553 
-0.000100184      2.01259      27.2016 
5.18633e-05      2.22407      13.7863 
0.000377030      1.06104     -43.4725 
-0.000121724      5.57258      124.546 
2.60706e-05      4.11130      68.3021 
2.60565e-05      4.13146     -155.854 
-0.000264032      3.43926     -9.70881 
-7.65955e-05     0.805047     -96.4188 
0.000605610      1.46294     -118.142 
-0.000123407      2.95677      139.252 
-0.000220627      1.59931     -23.1986 
0.000316401      4.14059     -155.911 
-2.56960e-05      3.68665     -84.5523 
0.000399749      6.35610      40.4057 
0.000147105      2.62551     -3.71246 
7.49103e-05      4.10761      68.4317 
-7.34915e-05      1.54693      30.7097 
-0.000238832      1.38946     -130.914 
-0.000191341      1.44679     -174.447 
-0.000169388      3.62007      9.54038 
-0.000283468      3.42940     -9.73699 
-0.000266144      4.25763      162.927 
0.000147389      3.25154     -91.7624 
0.000432442      2.00422      3.71900 
-0.000121678      4.96774     -14.9314 
0.000675898      5.08567      92.7049 
-0.000550611      1.76006     -119.624 
0.000406631      2.81824     -152.071 
-0.000327418      6.34943      29.4315 
9.35851e-05      3.25480      84.5346 
-2.49063e-05      2.70490     -16.7601 
0.000436342      4.18073      9.77775 
2.48538e-05      3.66896      60.0808 
-0.000253799      3.35789      176.072 
-7.26715e-05      5.79356     -20.4056 
-9.52807e-05      3.58236      177.920 
0.000273615      1.01607     -100.204 
7.24491e-05      6.48056      109.469 
-2.44721e-05     0.796304     -97.2143 
9.38591e-05      2.67277     -165.704 
0.000165195      5.22036     -133.448 
9.56114e-05      4.35839      5.26584 
-2.43568e-05      3.32024     0.690278 
0.000345441      4.57984     -176.244 
0.000281525      2.88730     -71.0003 
-0.000459092      6.52507      63.9062 
9.43936e-05      2.37777      150.524 
-0.000116877      6.47389      124.426 
0.000277158      2.91359     -135.834 
-0.000194890      2.48676     -115.741 
-9.01196e-05      1.61400     -36.9409 
-7.04141e-05      3.59680     -78.9400 
-0.000116745      5.69822      132.368 
0.000443273      5.91304      39.2349 
-0.000223687     0.795110     -96.4993 
0.000428815      6.15345      83.1868 
-9.24018e-05      3.31024     0.692363 
4.70534e-05      4.11326      68.6125 
4.61866e-05      3.51336      108.074 
0.000113018      3.25186     -91.9385 
2.35123e-05      4.46919      6.55256 
0.000491420      5.40237     -45.3000 
0.000209747      1.05380     -43.8465 
8.98342e-05      4.20862      156.176 
-2.34118e-05      1.99945      27.7185 
-0.000221324      4.82844     -16.4833 
0.000915240      2.90854     -125.767 
6.85616e-05      6.47724      109.386 
-0.000245603      5.80293     -20.3711 
-9.12579e-05      5.88233      103.068 
0.000158193      2.28116      159.738 
-0.000113723      3.69481      34.6363 
-2.32732e-05      6.99477      123.690 
-0.000214108      5.34290     -8.06944 
0.000555535      5.61008     0.306392 
4.45587e-05      2.60102      7.28895 
-6.70101e-05      3.39024    -0.676024 
0.000237974      4.37923      5.37211 
-0.000118554      4.42041      90.7777 
-0.000519918      4.98511     -135.081 
-0.000109524      4.85174      1.53540 
-4.57131e-05      6.97536      123.599 
9.02905e-05      4.27855     -67.7510 
0.000321198      4.14972     -155.967 
-4.49392e-05      1.60851     -23.0583 
-2.27204e-05      2.01122     -161.745 
-2.26304e-05      3.59490     -79.0964 
-0.000499331      5.79828      135.000 
-2.26376e-05      6.31843      37.5409 
-0.000313657      6.96984      123.530 
0.000132796      5.22690     -133.682 
-0.000651921      3.55535     -26.5651 
-4.37335e-05      3.93838     -174.463 
6.50020e-05      4.10962      68.7423 
8.54119e-05      3.59539      67.4292 
-8.68360e-05      3.62993      9.51422 
2.23883e-05      7.51775      125.635 
-0.000168628      4.43055      90.9053 
6.49343e-05      2.66558     -165.442 
-4.41598e-05      4.96067     -15.0728 
-2.23009e-05      6.30870      37.7236 
-6.60512e-05      3.60285     -79.2827 
-0.000108064      6.47954      124.499 
6.56315e-05      5.33904     -45.6830 
-0.000106258      3.30024     0.694461 
-4.41053e-05      2.00172     -161.656 
0.000104655      4.11925     -6.83172 
0.000101779      2.60492     -3.52145 
-8.61745e-05      5.88008      102.973 
-0.000366482      1.39603     -131.225 
-0.000229679      2.94267      139.272 
-6.56868e-05      6.30079      37.7793 
0.000343865      4.27478     -67.8750 
-0.000269315      5.24615      78.4545 
-6.47497e-05      7.00106      129.785 
-0.000467257      3.69229      34.8522 
-0.000388065      3.24154      91.7678 
-6.13518e-05      6.00581      77.7920 
0.00102977      5.86550     -137.003 
0.00111211      7.51192      125.573 
0.000308204      2.92077     -135.971 
-2.17565e-05      3.70050      34.7637 
-6.28830e-05      1.44586     -174.841 
0.000262921      2.29055      159.825 
-6.33056e-05      5.03081      1.02506 
-4.28137e-05      1.61771     -22.9196 
-0.000438984      6.35814      29.3872 
-0.000105325      3.60100     -79.4390 
0.000207460      5.23381     -133.761 
-6.38172e-05      2.01762     -162.104 
-0.000106046      6.29114      37.9628 
-6.08147e-05      1.77539     -75.6507 
0.000472535      5.34603     -45.6063 
-6.25057e-05      2.88226     -8.57991 
4.25385e-05     0.782943      155.072 
-0.000222808      3.59235      177.926 
2.13900e-05      4.25913      110.477 
-0.000933900      3.96965     -137.144 
0.000407631      6.15465      83.0944 
-0.000207561      5.81231     -20.3368 
-2.13193e-05      1.90539      30.6028 
-0.000100781      2.23607      42.8253 
-0.000882068      1.75137     -119.785 
6.27304e-05      4.76319     -29.1481 
0.000120826      3.19081      18.8324 
0.000100685      2.55125     -1.79692 
-8.07464e-05      1.35340      81.9298 
8.23599e-05      2.88555     -46.1233 
0.000186346      5.40941     -45.2247 
4.15296e-05      6.47063      109.219 
6.16794e-05      2.79957      15.3269 
0.000379498      4.18001      179.863 
-2.09473e-05      5.21104     -11.8490 
0.000101696      5.37093      9.32202 
4.08571e-05      2.38648      150.642 
7.91946e-05      3.25221     -92.1146 
-0.000270920      7.00874      129.732 
0.000193001      6.36259      40.4743 
-8.09234e-05      2.00811     -162.016 
-2.07520e-05      2.54951      48.1798 
-0.000140568      6.48521      124.572 
-0.000100769      5.88982      102.951 
4.10736e-05     0.760592      155.120 
-2.06798e-05      6.28943      38.0907 
-0.000157540      4.83520     -16.3360 
9.83420e-05      2.65590     -165.388 
6.01251e-05      4.19948      156.121 
6.05464e-05      5.85819     -136.937 
-6.06163e-05      6.58730      120.770 
-0.000219266      6.28156      38.1470 
0.000136638      5.77382      82.9365 
-2.05349e-05      5.19920     -11.7638 
5.92611e-05      4.24279      110.272 
0.000271306      5.58506     -139.866 
-2.04272e-05      4.84480     -16.3028 
-7.96428e-05      1.62693     -22.7824 
-8.06011e-05      3.59918     -79.5955 
-4.06536e-05      6.20520      132.976 
-3.97764e-05      3.38013    -0.508529 
0.000154694      4.75446     -29.2068 
-5.97648e-05      3.64146      9.64339 
-4.01840e-05      5.77068      57.7420 
4.02202e-05      2.60931     -98.5959 
2.01951e-05      4.10395      68.5615 
-0.000116636     0.785175     -96.5819 
0.000156699      4.67780      93.3089 
3.99403e-05      6.46734      109.135 
-7.71720e-05      5.20125     -11.8716 
0.000114378      6.03126      109.366 
-0.000157740      5.82168     -20.3026 
-0.000422438      5.32414      92.2605 
3.98267e-05      4.39014      5.48983 
-0.000169565     0.744647     -112.087 
0.000148967     0.751532      154.799 
0.000125399      5.37418     -45.4523 
-1.99091e-05      4.78173     -157.887 
5.81037e-05      4.48938     -130.574 
0.000173018      5.24073     -133.840 
3.94314e-05      2.81626      15.0232 
-3.86265e-05      3.32014     0.517719 
5.89605e-05      2.82243     -152.345 
0.000487577      4.12645     -155.671 
7.75916e-05      2.90663     -45.9757 
-0.000182010      4.87297      91.9992 
-0.000198821      3.34401     -83.1300 
-0.000150225      5.33300     -8.08452 
0.000148544      5.85909      98.1439 
-9.71426e-05      3.60902     -79.6242 
-5.78433e-05      5.64487      119.971 
-0.000235432      5.75689      57.7731 
-1.96359e-05      6.19107      132.971 
0.000351375      5.38080      9.30477 
-9.33233e-05     0.221359      71.5650 
7.75059e-05      6.46407      109.052 
-0.000115712      6.10942      114.258 
-1.95853e-05      3.03266      158.935 
0.000202463      4.38018      5.50234 
-0.000149437      2.02410     -162.460 
0.000269826      2.61082     -98.8129 
-1.94799e-05      4.94398     -15.2450 
-0.000113757      2.89214     -8.55036 
-0.000148250      5.24416      78.5615 
0.000207830      5.92224      39.0375 
-0.000294402      6.58219      120.695 
5.70136e-05      4.10932     -6.84831 
1.93364e-05      3.51027      107.919 
0.00121647      6.15586      83.0020 
0.000426357      2.93552     -136.518 
-0.000408971      4.55871     -154.953 
-5.61621e-05      4.82203      1.66373 
0.000180660      4.13557     -155.728 
-0.000112974      6.49089      124.645 
1.91856e-05      3.24581      84.3421 
-7.18001e-05      4.89258      9.17354 
-0.000150762      5.83106     -20.2685 
-0.000294440      6.27370      38.2034 
-0.000203595      5.81178     -138.907 
-0.000441570      6.11444      114.134 
-3.77708e-05      6.18425      132.903 
0.000580306      2.83129     -152.439 
-0.000343942      5.80535      134.930 
8.77726e-05      5.68107      35.7604 
0.000113062      6.46081      108.968 
0.000110075      4.10201      68.2505 
-5.45222e-05      3.31014     0.519283 
5.64298e-05      2.82592      14.9706 
-0.000129184      3.18610     -80.2420 
-0.000109774      2.55049     -91.1233 
1.88993e-05      3.08715      3.90049 
-0.000285906      3.60723     -79.7804 
0.000253824      4.67839      93.4312 
-1.88110e-05      6.41480      130.194 
-0.000363788      4.72611      143.518 
-0.000138489      2.23558      43.1874 
0.000195471      1.05418     -43.0780 
-0.00120445      5.57245     -134.273 
3.72031e-05      2.90002     -70.8778 
1.87334e-05      2.61490     -3.50799 
0.000123242      1.99424      3.73763 
-0.000105335      3.65131      9.61711 
0.000121848      4.17088      9.80108 
-1.86759e-05      1.63615     -22.6468 
-3.67165e-05      6.10532      114.172 
3.65343e-05      4.23934      110.145 
0.000110220      5.24767     -133.919 
0.000179652      5.76514      82.8257 
-9.01627e-05      5.98369      103.432 
0.000144001      2.59434     -3.31459 
3.67178e-05      2.91359     -45.8343 
-0.000253897      2.49112     -115.948 
7.19843e-05      3.17515      19.1197 
0.000109881      6.45757      108.884 
-1.84770e-05      6.30714      129.596 
0.000328064      1.45362     -117.446 
-0.000141292      4.97803     -135.000 
-0.000127460      5.84045     -20.2345 
-8.68790e-05      2.83471      124.363 
7.10128e-05      2.64622     -165.334 
5.47285e-05      2.83558      14.9184 
-3.59742e-05      1.63003     -36.5184 
0.000343969      5.93001      38.9767 
-0.000204740      4.85161     -16.1563 
-0.000106707      6.28669      129.514 
0.000136688      2.90331     -70.6913 
1.83002e-05      6.35498      40.5328 
0.000139892      3.67784     -123.128 
0.000582419      1.96329     -116.304 
-0.000124418      2.90203     -8.52100 
0.000678363      5.25438     -134.152 
0.000222842      5.58628     -140.011 
1.81335e-05      3.25260     -92.2906 
1.81049e-05      5.08615      92.8174 
-5.20361e-05      6.52050      63.7886 
-5.35868e-05      5.33496      92.4709 
-0.000123302      7.02283      129.743 
0.000142548      6.45434      108.800 
5.29807e-05      4.14030     -6.93620 
0.000203316      4.25198      59.9376 
-7.06858e-05      6.49658      124.717 
-0.000193410      5.84983     -20.2007 
-8.58418e-05      3.13498      163.126 
-0.000172476      5.32310     -8.09966 
6.99978e-05      4.79051      110.402 
0.000120610      4.74574     -29.2657 
3.53002e-05      2.31277      159.763 
-1.78152e-05      1.40264     -131.532 
3.51663e-05      4.99605      73.4875 
-3.54760e-05      5.31738      116.469 
6.89096e-05      2.92056     -45.6936 
3.54609e-05      2.84524      14.8666 
-6.91936e-05      4.80234      1.78991 
-1.77187e-05     0.793095     -95.0636 
-6.97683e-05      3.17290     -80.5674 
0.000103301      2.79100     -21.8777 
-5.26368e-05      6.78059      132.490 
-3.43293e-05      6.31352      129.666 
-8.70858e-05      5.81932     -138.972 
-3.48830e-05      5.95252      26.2207 
-0.000330926      6.26584      38.2599 
0.000173112      6.45112      108.716 
1.75502e-05      3.24681      84.1665 
-6.90252e-05     0.748465     -112.797 
-5.18163e-05      2.04022     -162.897 
1.75308e-05      2.86204      14.5703 
-0.000531995      6.78735      132.552 
-3.46732e-05      5.18941     -11.7863 
1.74650e-05      3.07717      3.91316 
-5.05240e-05      4.36651      124.928 
-8.47818e-05      5.24218      78.6686 
3.42057e-05      4.09645      68.0687 
0.000210310      5.31791     -45.7619 
-8.54002e-05      2.56018     -90.6714 
-8.40971e-05      5.32184      116.565 
-1.73309e-05      1.64539     -22.5127 
-0.000213880      5.33454      92.3636 
0.000185056      4.67900      93.5534 
0.000101832      2.60432     -3.30187 
3.43777e-05      4.20601      143.021 
6.81958e-05      2.87172      14.5202 
8.21836e-05      4.58982     -176.252 
-0.000216157      6.54019     -31.9404 
-3.38715e-05      4.77624     -157.731 
-0.000169546      5.85921     -20.1669 
0.000747315      7.50611      125.511 
-1.72254e-05      4.87263      91.8817 
0.000230153      5.76639      82.7271 
5.07480e-05      6.36149      40.6013 
-8.48252e-05      2.91192     -8.49185 
-5.09195e-05      5.95695      26.3070 
0.000115077      4.39110      5.61971 
0.000146767      5.85768      98.0471 
0.000486024      4.17001      179.863 
0.000114148      4.11145     -109.316 
-0.000165815      5.81836     -138.833 
-0.000495019      5.81242      135.000 
-3.36654e-05      4.27968      162.878 
-0.000181083      3.17128     -80.7456 
0.000151056      6.44792      108.632 
-6.64534e-05     0.901388     -72.5701 
3.34606e-05      6.04070      109.335 
-3.37577e-05      7.03691      129.753 
0.000457690      4.22800      143.076 
-0.000217013      6.57709      120.620 
8.30495e-05      4.79401      110.514 
1.69021e-05     0.720139      154.502 
-1.68751e-05      5.98602      103.526 
-5.01233e-05      5.17962     -11.8089 
0.00165733      6.15709      82.9096 
6.62715e-05      4.49484     -130.850 
-0.000238728      3.80739      108.530 
-9.53227e-05      2.05645     -163.327 
-1.68009e-05      1.63808     -36.3102 
-0.000131195      4.78105      88.8015 
-0.000144730      6.34453      29.3528 
3.31248e-05      5.61004     0.204262 
6.56649e-05      2.63655     -165.279 
8.22606e-05      2.88141      14.4703 
6.46393e-05      5.08665      92.9299 
-0.000522023      4.86231      91.7678 
0.000160706      3.13465     -111.326 
-6.56275e-05      4.60679      3.11084 
-3.31284e-05      7.05739      129.826 
-4.98126e-05      5.85577     -20.0751 
-0.000145318      5.30397      116.420 
-8.18571e-05      5.96591      26.2644 
8.09686e-05      4.10020      67.9391 
0.000205887      2.59378     -3.09406 
-0.000112473     0.747328     -114.507 
-1.66287e-05      7.11126      130.094 
-0.000484737      6.11036      114.048 
-9.80932e-05      2.92181     -8.46289 
-0.000286581      5.31320     -8.11485 
-3.27856e-05      4.78268      1.91714 
-1.65527e-05      3.60547     -79.9368 
0.000480418      3.29257     -68.8126 
-0.000175659      2.57002     -90.2229 
0.000163033      6.44473      108.547 
0.000110722     0.711126      154.156 
0.000143229      1.04690     -43.4518 
3.28597e-05      2.78173     -21.9544 
-0.000243323      5.86517     -20.0415 
-0.000120594      3.68409      34.9411 
-3.17371e-05      4.97097     -134.918 
-4.77982e-05      6.50228      124.790 
-0.000109302      3.61707     -79.8085 
0.000561053      3.79729     -145.515 
0.000313663      4.11238     -155.429 
-9.59703e-05      3.61885     -79.6527 
-0.000159938      7.10482      130.033 
9.49618e-05      4.72340     -29.2785 
-1.62866e-05      1.64615     -36.1041 
3.23983e-05      5.76340      123.966 
-1.62678e-05      3.12541      163.072 
0.000156409      4.23591      110.018 
1.62608e-05      3.67238     -122.998 
-4.81780e-05      5.23436      78.5398 
0.000173790      4.67963      93.6756 
-3.24345e-05      4.42462      107.493 
1.61950e-05      5.00564      73.5200 
-0.000121527      2.84861      124.415 
-0.000240443      4.63643      147.955 
0.000141460      4.79752      110.626 
3.20666e-05      2.75944     -21.9171 
-0.000220519      4.42163      107.369 
-1.61261e-05     0.803617      73.3690 
0.000170932      4.50139     -130.946 
-1.61029e-05      4.77268      1.92115 
9.50481e-05      2.90801      14.1318 
-0.000124137      5.74310      57.8043 
4.67545e-05      2.94279     -136.652 
7.88565e-05      4.65588      168.352 
-6.37716e-05      6.54868     -31.8941 
0.000173873      6.44156      108.463 
0.00140425      5.26135     -134.230 
-1.60150e-05     0.858021      53.5308 
-9.45407e-05      2.93171     -8.43413 
6.22614e-05      4.17129     -7.02279 
-4.69780e-05      6.29306      129.584 
-1.59877e-05     0.888876     -72.9921 
-4.74243e-05      4.61677      3.10411 
-1.59881e-05      3.11294      163.195 
-9.39899e-05      5.97488      26.2220 
0.000109644      5.93930      38.7803 
3.16071e-05      6.03739      109.245 
-0.000888888      5.82589     -138.897 
-4.63367e-05      4.76699     -157.685 
0.000209560      5.76071      124.104 
-7.86030e-05      4.76303      2.04541 
-0.000402224      5.87456     -20.0081 
7.73862e-05      2.95054     -137.060 
-3.12651e-05      4.36079      124.820 
-9.08375e-05      5.63988      119.883 
-1.58310e-05      5.97396      103.455 
-4.67117e-05      4.79085      88.9236 
1.58023e-05      2.62945     -165.012 
-4.68338e-05      5.99921     -34.0609 
9.18400e-05      2.75016     -21.9948 
-0.000723700      6.54549     -32.0147 
-1.57720e-05      1.67631     -35.7761 
-4.58051e-05      4.84200     -16.1892 
-7.65075e-05     0.886002     -73.6105 
-9.26992e-05      3.15824     -81.0745 
1.57133e-05      5.00281      73.6298 
1.56949e-05      3.67535     -122.782 
3.12065e-05      3.18022      64.4824 
1.56704e-05      2.40882      150.668 
3.12375e-05      5.76767      82.6286 
-7.63941e-05      5.23238      78.6471 
-0.000227369      7.09839      129.971 
-3.09666e-05     0.810432      74.2488 
0.000149586      3.52302     -110.956 
-0.000105281      3.10337      163.142 
4.58533e-05      4.24698      60.0543 
1.56052e-05      2.91342     -45.5563 
7.50394e-05      2.61979     -164.956 
-1.55819e-05      3.24187      91.9445 
-0.000309869      3.47570     -84.5519 
0.000134501      5.39067      9.28759 
0.000153472      6.43840      108.379 
-3.08109e-05      1.68443     -35.5772 
-0.000648207      5.57929     -134.492 
0.000134962      5.08717      93.0424 
-4.45999e-05     0.864002      52.9975 
9.15156e-05      2.91770      14.0839 
0.000179724      5.75775      82.6158 
4.58388e-05      4.43825      6.46850 
-3.08300e-05      3.25186      91.9385 
-7.59829e-05      4.85845     -16.0102 
-3.08395e-05      4.63622      2.96732 
-7.51681e-05      3.51592     -27.8041 
-0.000135754      2.94160     -8.40556 
7.54903e-05      6.03410      109.156 
7.43088e-05      4.10396      67.8097 
-1.54089e-05      5.35651      122.652 
-1.54153e-05      3.82326      108.767 
6.06426e-05      5.85629      97.9502 
0.000129650      5.28984     -45.9191 
-0.000295072      4.74814      143.565 
0.000248158      1.32008      139.917 
-0.000121397      4.41865      107.246 
0.000216534      4.66567      168.377 
-1.53387e-05      2.24288      43.0126 
0.000146911      4.12148     -155.487 
-0.000310752      5.30330     -8.13010 
-8.93716e-05     0.751532     -115.201 
-3.03575e-05      4.64620      2.96094 
-1.52982e-05      5.99093     -34.1145 
-0.000620434      2.57008     -90.4459 
3.04710e-05      4.71468     -29.3379 
-0.000147461      4.57263     -155.172 
0.000270926      3.07402      122.242 
-6.05579e-05      5.98827      26.2655 
-7.51682e-05      4.74342      2.17474 
-1.52405e-05      3.67271      9.71879 
-0.000145639      5.30843      116.517 
-0.000188456      2.92099      139.165 
2.89151e-05      2.00360      3.43363 
2.98388e-05      2.41754      150.784 
1.52123e-05      3.18454      64.3201 
-0.000177380      3.25221      92.1146 
0.000118480      4.10815     -109.185 
-4.54917e-05      4.52429     -121.442 
0.000190003      4.68028      93.7978 
-4.53495e-05      5.98001     -34.3013 
0.000119509      4.80105      110.738 
-3.01765e-05      1.69257     -35.3803 
-0.000133260      5.34270      122.619 
-2.99916e-05     0.807775      74.9315 
0.000190070      3.13268     -111.733 
-2.99284e-05      3.69986      4.18492 
0.000208435      6.43525      108.294 
-0.000294160      6.26420      38.3884 
8.93863e-05      5.94710      38.7200 
7.40058e-05      1.03966     -43.8309 
-0.00173735      5.88396     -19.9748 
-0.000720681      4.53151     -121.831 
7.37422e-05     0.702140      153.800 
-2.99774e-05      6.27204      38.3317 
-1.50378e-05      6.33963      29.2741 
7.27643e-05      2.01358      3.41659 
-0.000374841      4.40614      107.160 
0.000131680      4.69234     -29.3511 
0.000187518      4.23249      109.891 
-1.49695e-05      5.81949      134.930 
0.000129648      2.60377     -3.08218 
-1.49382e-05      5.97175     -34.3553 
-4.43395e-05      2.07280     -163.751 
4.45584e-05      2.92741      14.0362 
-0.000102192      5.73778      57.8888 
-0.000330264      5.82656      135.000 
-4.43136e-05      3.15671     -81.2538 
-0.000443294      6.81502      132.681 
4.44681e-05      4.50795     -131.042 
5.83471e-05      4.42720      6.35448 
-5.87878e-05      5.99724      26.2232 
-8.82755e-05      4.66567      2.82561 
4.33274e-05      3.29619     -68.6505 
0.000264525      3.21896     -129.327 
-0.000303112      5.58630     -134.565 
-5.91194e-05      5.95268     -34.5978 
-7.24902e-05      3.80422      108.387 
-7.28786e-05      6.33091      29.3183 
-4.41769e-05      4.76155     -157.528 
-4.41254e-05      1.70074     -35.1852 
2.93394e-05      5.43203      97.9362 
1.47587e-05      2.49273     -11.8058 
8.74588e-05      6.03083      109.066 
-1.47557e-05      6.31991      129.736 
-4.39538e-05      4.84883     -16.0428 
-5.64699e-05      3.97698     -137.242 
0.000101014      5.86619      97.9367 
-0.000215345      6.10629      113.962 
1.46878e-05      2.94442      13.7531 
2.90873e-05      4.14162      4.29260 
-0.000438293      4.40320      107.036 
-0.000909045      7.09197      129.909 
8.60376e-05      2.61237     -99.0296 
1.46505e-05      6.33948      59.9973 
4.37453e-05      4.50699     -131.222 
-1.46364e-05      5.16005     -11.8543 
0.000216252      6.43212      108.210 
-2.91463e-05      2.34559     -6.60994 
7.22666e-05      2.95413      13.7070 
-1.46032e-05      5.94445     -34.6525 
0.000571920      7.35425      128.818 
4.36231e-05      5.95648      38.5246 
-4.30691e-05     0.805233      75.6186 
4.32840e-05      2.51436     -11.9356 
0.000156265      4.80460      110.849 
-0.000184003      3.55090     -26.7815 
-0.000100397      2.95149     -8.37718 
-0.000143228      5.92551     -34.8970 
8.61375e-05      5.09770      93.1487 
-4.30734e-05      3.52477     -27.7283 
-7.13505e-05      4.75232     -157.482 
-9.81906e-05      2.08240     -163.828 
5.72499e-05      6.15899      137.764 
0.000249025      5.75905      82.5171 
-0.000292618      4.68517      2.69141 
0.000126523      4.51359     -131.317 
-0.000357482      5.33731      122.529 
-0.000372202      2.32459     -6.42185 
0.000113622      3.58987     -151.007 
1.44220e-05      2.74089     -22.0731 
-5.71637e-05      6.01063      26.2666 
5.65950e-05      6.33448      60.0756 
7.09954e-05      5.96431      38.4648 
-8.39862e-05      5.23042      78.7545 
2.85357e-05      1.03247     -44.2152 
-7.08038e-05      3.08133      163.212 
0.000354103      3.52661     -111.107 
7.06359e-05      4.10487     -109.053 
-1.43418e-05      6.50800      124.862 
-2.85430e-05      1.70892     -34.9920 
-7.00880e-05      3.14384     -81.5864 
-2.84868e-05     0.755844     -115.887 
-0.000252216      5.83343     -138.962 
-0.000345994      5.29340     -8.14541 
7.00419e-05      5.40054      9.27047 
0.000112464      6.02757      108.976 
-4.25701e-05      3.25260      92.2906 
-0.000244952      4.83240     -16.2223 
1.42588e-05      4.19237     -7.12502 
0.000138460      6.26331      70.1185 
-0.000165999      5.72399      57.9203 
5.63469e-05      2.96385      13.6612 
0.000346788      6.42900      108.125 
2.81517e-05      2.52414     -11.8887 
-0.000246612      4.74959     -150.899 
-1.41366e-05      7.51671      51.5902 
9.56669e-05      2.90663     -70.5053 
6.96716e-05      4.14238      4.43053 
-5.59437e-05      5.15026     -11.8772 
-4.18976e-05     0.868332      51.5463 
2.82050e-05      6.16640      137.826 
-9.68438e-05     0.868332     -75.3236 
0.000126052      6.91915     -35.8265 
5.61988e-05      4.81150      54.5592 
-0.000177254      2.92857      139.293 
2.81336e-05      4.67001     -29.3644 
-5.59104e-05      6.01960      26.2245 
-0.000151284      7.51051      51.6500 
-0.000216433      4.67600     -61.5167 
0.000137968      5.86482      97.8400 
-0.000313929      3.47667     -84.3878 
1.40668e-05      4.10775      67.6806 
6.90563e-05      4.41726      6.36884 
-2.78702e-05      1.71712     -34.8007 
-2.78890e-05      2.24243      43.3737 
0.000177977      5.09825      93.2609 
0.000217817      3.13088     -112.141 
1.40430e-05      2.92043     -45.4162 
2.77706e-05      2.70934     -22.1156 
-0.000124497      5.91731     -34.9524 
-1.40297e-05      4.89099      9.05789 
-2.78609e-05      6.32602      29.2393 
0.000136538      3.18479      76.7492 
6.90565e-05      2.60409     -99.2815 
2.78236e-05      1.02552     -43.8147 
-6.91980e-05      4.73770     -157.278 
8.20409e-05      5.43060     -45.1492 
-1.40119e-05     0.802808      76.3099 
1.39982e-05      2.60311     -164.629 
0.000205855      3.59862     -151.085 
-6.93387e-05      3.26300      92.4590 
-5.51752e-05      2.96138     -8.34900 
-8.17105e-05      4.67124     -61.6245 
8.35192e-05      6.18053      137.820 
1.39486e-05      5.97214      38.4051 
-1.39591e-05      5.90810      139.462 
-2.74791e-05     0.755910     -117.582 
0.000165008      4.81730      54.4623 
1.39421e-05      5.00682      73.8817 
-8.31429e-05      5.88641      139.409 
-0.000364608      3.55983     -26.7090 
-9.57484e-05      6.10224      113.877 
1.39089e-05      3.49857     -157.834 
0.000297786      1.33417      139.865 
-4.12903e-05     0.810247      77.1644 
-0.000164907      6.55397     -31.9683 
4.13744e-05      2.99069      13.3392 
0.000525548      6.92501     -35.8935 
0.000162563      5.98164      38.2110 
2.75550e-05      6.76605      124.888 
2.76428e-05      2.45601     -142.943 
0.000216017      3.30551     -68.7136 
-9.59909e-05      6.03299      26.2677 
-1.38159e-05      5.12267     -148.979 
-4.10978e-05      3.07176      163.158 
-0.000149108      2.56031     -90.8952 
-0.000232326      4.53679     -121.938 
0.000175584      4.22910      109.763 
0.000298497      6.18794      137.882 
-0.000190825      5.87882      139.346 
-8.18280e-05      4.85202      91.6534 
-1.37912e-05      5.65852      120.009 
8.11298e-05      6.32950      60.1541 
2.74561e-05      4.66901      93.5610 
6.81812e-05      6.01163      108.827 
0.000188572      2.82708     -152.166 
9.38481e-05      3.50783     -157.895 
-0.000107701      3.93103     -141.818 
1.37390e-05      4.80817      110.961 
-5.44340e-05      5.14048     -11.9001 
1.37436e-05      6.02433      108.886 
2.73326e-05      5.26875     -45.9997 
-4.07635e-05      5.31290      116.613 
-1.37245e-05      4.96391     -134.837 
2.72075e-05      6.25732      70.0012 
2.73089e-05      2.54578     -12.0162 
-1.36948e-05      3.53362     -27.6528 
-0.000187039      4.86263      91.8856 
2.72725e-05      1.01833     -44.2043 
-0.000121502      3.26345      92.6345 
1.36705e-05      5.00405      73.9917 
1.36767e-05      2.44616     -142.474 
6.77986e-05      4.82469      111.140 
-1.36607e-05      4.65382     -173.089 
-6.69309e-05      1.72534     -34.6111 
-1.36451e-05      2.24971      43.1988 
6.74979e-05      3.00042      13.2952 
-8.06941e-05      5.22848      78.8620 
6.73207e-05      4.13241      4.44124 
0.000282511      7.50031      125.449 
4.05932e-05      2.14555      113.339 
2.70768e-05      2.67778     -22.1590 
4.04283e-05      2.45410     -142.616 
-8.11766e-05      6.54232     -32.1354 
0.000280803      6.42590      108.040 
2.70214e-05      6.76033      124.818 
-0.000174272      6.04196      26.2258 
6.70252e-05      5.26181     -46.0780 
-0.000119970      5.90912     -35.0079 
-4.03895e-05      4.14695      86.6822 
0.000226978      4.82312      54.3657 
0.000146720      4.67749      168.282 
-8.05362e-05      4.72315     -157.072 
-9.39742e-05      4.25141      170.250 
0.000133186      4.22001      142.994 
-0.000106690      2.97128     -8.32100 
-2.70054e-05      3.14239     -81.7668 
4.02397e-05      4.16001      179.862 
1.35056e-05      4.02305     -130.261 
5.33832e-05      2.59326     -2.87344 
2.69092e-05      1.47248     -118.828 
-5.39134e-05      3.54651     -26.9986 
-1.35022e-05     0.808084      77.8557 
-0.000319930      4.53894     -122.219 
-1.35040e-05      2.25701      43.0251 
1.35007e-05      2.60572     -99.4985 
1.34771e-05      5.01092      74.1331 
2.66739e-05      4.66840      93.4385 
-0.000146708      3.33384     -55.8809 
0.000106798      5.87473      97.8267 
-0.000119919      5.17874     -138.523 
9.32763e-05      4.42832      6.48307 
-0.000266272      5.85713      139.293 
1.34627e-05      4.52020     -131.412 
0.000106591      6.00841      108.737 
-2.68277e-05     0.853756     -76.4521 
-0.000119796      4.69516      2.68568 
0.000305903      5.27519     -134.539 
0.000212789      3.60738     -151.161 
-9.32018e-05      5.71869      58.0052 
-0.000146758      6.55079     -32.0888 
-0.000292346      5.28350     -8.16077 
0.000305992      7.36052      128.879 
1.34339e-05      2.21142     -24.0151 
3.98439e-05      4.51934     -131.591 
-6.67647e-05      4.76585     -165.789 
1.34198e-05      5.41041      9.25341 
1.34093e-05      2.64622     -22.2035 
-6.67206e-05      3.55542     -26.9254 
-7.96453e-05      7.50431      51.7098 
-1.33920e-05      4.20288     -38.0424 
4.00167e-05      5.00819      74.2432 
-7.96441e-05      4.71959     -150.556 
-6.63644e-05      3.13107     -81.9217 
-2.66637e-05      5.84070      135.000 
7.96483e-05      1.53951      118.729 
-2.66966e-05      7.41569      54.9384 
9.29117e-05      5.81922     -33.0074 
3.98851e-05      2.14161      113.093 
3.98565e-05      6.75463      124.749 
-9.30989e-05      5.89336     -19.9416 
-1.33733e-05      2.27229      42.3246 
2.66818e-05      2.61467     -22.2490 
1.33369e-05      2.93450     -45.1381 
2.65957e-05      3.80554     -145.600 
-0.000106019      4.76212      143.539 
2.65109e-05      2.90998     -70.3197 
-2.65395e-05     0.851469     -77.1063 
-0.000304309      5.89936     -19.8172 
6.63956e-05      6.20206      137.875 
-1.33142e-05      5.12864     -11.8139 
3.97297e-05      4.82830      111.251 
-7.94594e-05      7.40995      55.0016 
0.000278041      7.48636      125.431 
-7.94312e-05      3.47766     -84.2238 
-1.33073e-05      2.35077      39.6495 
-9.26571e-05      3.27391      92.8012 
1.32921e-05      5.09883      93.3731 
2.65377e-05      3.01015      13.2514 
2.65552e-05      2.60542     -22.3323 
-6.61486e-05      4.26127      170.272 
-1.32813e-05      6.59589      120.725 
-3.97959e-05      7.08556      129.847 
-5.29178e-05      5.58622     -134.710 
-1.32720e-05      5.31739      116.710 
7.93143e-05      5.99120      38.0176 
3.96509e-05      5.15878     -140.664 
1.32560e-05      2.39353      146.244 
-7.93184e-05      4.76340     -165.905 
-2.65182e-05      4.36994     -45.1854 
-1.32703e-05      5.71193      117.642 
-3.97055e-05      4.70865     -156.865 
5.28750e-05      5.65433      71.1164 
-1.32524e-05     0.806040      78.5507 
-2.64394e-05      6.25799      38.3166 
-5.28491e-05      6.04639      26.3108 
2.64301e-05      5.10941      93.4784 
6.60250e-05      6.20948      137.937 
-2.64446e-05      2.33452     -6.39440 
-7.92267e-05      6.55927     -32.0424 
-5.27931e-05      4.37700     -45.0926 
3.96129e-05      2.57387     -22.3801 
-3.96081e-05      4.40910      107.284 
-1.32290e-05      5.22061      78.7331 
-2.64113e-05      5.83364      134.931 
-1.32180e-05     0.873213      50.1104 
-1.32018e-05      2.35847      39.4945 
-3.95629e-05      5.31814      122.405 
1.32113e-05      3.02736      12.9804 
-2.63903e-05      3.19625     -45.5070 
-1.32013e-05      6.60101      120.800 
1.32016e-05      6.74893      124.679 
-2.63629e-05      1.50217      162.168 
2.63735e-05      5.87337      97.7300 
2.63587e-05      6.00521      108.646 
1.31969e-05      5.76036      82.4185 
-1.31963e-05      3.32824     -56.0235 
1.31809e-05      5.59578      94.3045 
-1.31897e-05      3.56877     -26.6369 
-1.31580e-05      3.31436     -56.0702 
-1.31768e-05     0.360139     -88.4089 
-1.31667e-05      5.70491      58.0372 
