! Center RA: 04 23 15.80073,  Dec: -01 20 33.06555 (2000.0)
! Established model.
! Flux (Jy) Radius (mas)  Theta (deg)  Major (mas)  Axial ratio   Phi (deg) T \
! Freq (Hz)     SpecIndex
0.00121153     0.378021      127.476 
0.00116853     0.392046      127.747 
0.00285165     0.427200      122.574 
 0.0213924     0.435660      121.866 
0.00633028     0.178885     -153.435 
0.00385844     0.344384      64.1790 
0.00180610      1.41510      175.135 
0.00524466      2.08125     -160.346 
0.00523366      2.09404     -160.181 
0.00256656      1.40513      175.101 
0.000646864      1.39517      175.066 
0.000419419      1.38438      175.443 
0.000611535      1.66075      178.275 
0.000205811      1.37441      175.409 
0.000203151      1.36444      175.376 
0.000398227      1.35447      175.342 
0.000781759      1.67075      178.285 
0.000195455      1.34451      175.307 
0.000384564      1.17881     -165.256 
0.000384414      1.32378      175.668 
0.00128588      1.68074      178.295 
0.00467174      1.19105     -164.914 
0.000560883      1.31381      175.635 
0.000183012      1.29314      176.009 
0.000535503      1.30384      175.601 
0.000177294      1.28316      175.978 
0.00135497      1.69074      178.305 
0.000511977      1.31461      175.200 
0.000171883      1.26254      176.367 
0.000166740      1.33540      174.844 
0.000326979      1.24197      176.769 
0.000321839      1.32544      174.806 
0.000161242      1.69047      178.644 
0.000160338      1.34629      174.459 
0.00232513      1.51119     -177.725 
0.00121688      1.70074      178.315 
0.000460556      1.23199      176.743 
0.000306647      1.33634      174.417 
0.000592189      1.34729      174.036 
0.000694241      1.21149      177.161 
0.00135709      1.71073      178.325 
0.000142694      1.33735      173.991 
0.000682333      1.34837      173.613 
0.000134794      2.03973     -161.121 
0.00240401      1.19369     -164.450 
0.000387307      2.02386     -161.565 
0.000635502      1.34952      173.191 
0.000130120      2.11028     -159.762 
0.000842624      1.20150      177.138 
0.00184204      1.72073      178.335 
0.000369903      2.12313     -159.602 
0.000366286      2.01122     -161.745 
0.000242257      1.33959      173.140 
0.000118597      1.35074      172.770 
0.000234059      2.13600     -159.444 
0.000675035      2.00811     -162.016 
0.000786035      1.34082      172.716 
0.000335225      2.13953     -159.193 
0.00143262      1.20104      177.614 
0.00207414      1.20603     -164.120 
0.000212786      2.15244     -159.039 
0.000617618      1.34213      172.293 
0.000709696      2.00504     -162.288 
0.000306356      2.15604     -158.791 
0.000691663      1.73072      178.345 
9.89149e-05      2.16899     -158.640 
0.000290530      1.33222      172.235 
0.000193371      2.17265     -158.394 
0.00106201      2.00202     -162.561 
0.000968299      1.73104      178.014 
0.00113062      2.18564     -158.247 
0.000972167      1.33360      171.809 
0.000888089      1.52118     -177.739 
0.000173944      1.21840     -163.796 
0.00273877      1.29988     -162.541 
8.17004e-05      1.32371      171.747 
0.000810450      1.21103      177.634 
0.00238206      1.74103      178.025 
0.00103924      1.99905     -162.834 
0.000160082      1.33507      171.384 
0.000811875      1.32518      171.320 
0.00262978      2.17635     -158.150 
0.000686886      1.53118     -177.754 
6.99261e-05      1.20067      178.091 
0.000646622      1.32673      170.893 
0.00108116      1.99612     -163.108 
0.000869606      1.21066      178.107 
0.000834416      1.31685      170.824 
0.000109199      1.18140     -164.787 
0.00531609      1.53160     -177.380 
0.000403670      1.99324     -163.383 
0.000466772      1.17175     -164.659 
0.000245463      1.22102      177.653 
0.000324961      1.54117     -177.769 
0.000415335      1.31848      170.395 
0.000677692     0.854751      173.956 
0.000810038      1.75103      178.036 
0.000488098      2.00282     -163.465 
0.000312622      1.23102      177.672 
8.34811e-05      1.24145      177.230 
4.09350e-05      1.25144      177.252 
4.08907e-05      1.30943     -162.672 
0.00276265      1.45496      175.269 
0.00358675     0.800625      170.655 
0.00557459      1.46492      175.301 
0.00410880      1.80737     -172.049 
0.00576927      1.52161     -177.363 
0.00385662     0.790759      170.538 
0.00378932      1.47489      175.333 
0.00242440      1.20880     -163.664 
0.00161941      1.19921     -163.530 
0.00250259      1.51162     -177.346 
0.00112223      1.81728     -172.093 
0.00102911      1.82858     -171.826 
0.000308901      1.50163     -177.328 
0.00220492     0.780897      170.417 
0.00214789      1.09882     -166.849 
0.00162738      1.44499      175.236 
0.00145665      1.10114     -166.342 
0.000289445      1.14285     -164.261 
0.000585018      1.15521     -163.918 
0.00226347     0.772787      169.563 
   1.95676    0.0141420     -45.0003 
  0.294703    0.0100000     -90.0000 
  0.203745      0.00000      0.00000 
 0.0174131    0.0412310      75.9639 
 0.0207192    0.0509902      78.6901 
0.00696321    0.0223607     -63.4350 
 0.0268717    0.0200000     -90.0000 
 0.0326857    0.0608276      80.5377 
0.00649664    0.0316228     -71.5651 
 0.0492380    0.0300000     -90.0000 
 0.0709226    0.0728011      74.0547 
  0.110428    0.0412310     -75.9639 
  0.121638    0.0824621      75.9638 
 0.0891711    0.0509902     -78.6901 
 0.0812469    0.0921954      77.4712 
 0.0939881    0.0538516     -68.1987 
 0.0831275    0.0905538      83.6598 
  0.134260    0.0670820     -63.4349 
 0.0232808    0.0900000      90.0000 
0.00252561     0.101980      78.6901 
 0.0528051     0.100499      84.2894 
0.00898895    0.0905539      96.3402 
 0.0618168    0.0721110     -56.3100 
 0.0303762     0.254951      101.310 
 0.0432056    0.0921954      102.529 
 0.0167285     0.257099      103.496 
0.00343233     0.344093      125.538 
0.00329878     0.350000      126.870 
 0.0124556     0.240208      92.3860 
 0.0299921     0.382884      130.764 
 0.0302761    0.0948683      108.435 
0.00989941     0.240000      90.0000 
0.00640982     0.230868      85.0303 
 0.0219056     0.389487      131.878 
 0.0534577    0.0984886      113.963 
 0.0175465     0.231948      82.5686 
 0.0412978     0.403609      131.987 
0.00591103     0.100000      126.870 
0.00825167     0.240832      85.2364 
 0.0294519    0.0806226     -60.2551 
0.00307613     0.233452      80.1342 
0.00838979     0.241868      82.8750 
0.000878532     0.235372      77.7352 
0.00941113     0.243310      80.5377 
 0.0283898     0.102956      119.055 
 0.0416453    0.0761577     -66.8014 
0.00154300     0.396989      130.914 
0.00157724     0.106301      131.186 
0.00297361     0.245153      78.2317 
0.00557474     0.447772      119.427 
0.00473607     0.396232      132.955 
0.00741958     0.456509      118.811 
0.00241999     0.230217      87.5105 
0.00442686     0.451774      117.699 
0.00215619     0.230000      90.0000 
 0.0106782     0.108167      123.690 
0.00258423     0.456180      116.003 
0.00310207     0.230217      92.4896 
0.00874729     0.451885      114.864 
0.00420511     0.230868      94.9697 
0.000486670     0.104403      106.699 
0.00176729     0.107703      111.801 
 0.0339824    0.0728011     -74.0547 
0.00576977     0.231948      97.4314 
 0.0109806     0.447772      113.703 
 0.0133358     0.114018      127.875 
0.00149259     0.111803      116.565 
0.00146315     0.220907      95.1944 
0.000373127     0.233452      99.8658 
0.00491333     0.222036      97.7652 
0.00156435     0.116619      120.964 
0.00214320     0.390513      129.806 
0.00270122     0.443847      112.521 
0.00437137     0.449444      110.854 
0.000592585     0.223607      100.305 
0.00169613     0.212132      98.1301 
0.000854276     0.372022      126.254 
0.000815609     0.122066      124.992 
0.00135033     0.380132      125.362 
0.00208711     0.213776      100.784 
0.000260270     0.577062      152.103 
0.00126902     0.382753      123.275 
0.000754379     0.585918      152.560 
0.00145271     0.455412      109.231 
0.00121688     0.215870      103.393 
0.00142954     0.385876      121.218 
0.000950424     0.594811      153.004 
0.00137214     0.218403      105.945 
0.00136394     0.461736      107.650 
0.00152156     0.389487      119.197 
0.00370216     0.603738      153.435 
0.000674936     0.380789      119.932 
0.000226664     0.208806      106.699 
0.000669532    0.0806226      119.745 
0.000870259     0.211896      109.290 
0.00209057     0.468402      106.113 
0.00105891    0.0632456      108.435 
0.00173398     0.221359      108.435 
0.00140771     0.215407      111.801 
0.00274601     0.384708      117.897 
0.00282214    0.0500000      90.0000 
0.00360112     0.475395      104.621 
0.000916368     0.224722      110.854 
0.00980690     0.608276      152.592 
0.00140989     0.219317      114.228 
0.00273671     0.380132      116.565 
0.00997349    0.0824621     -75.9638 
0.00253500    0.0447213      63.4350 
0.000807081     0.225610      102.804 
0.00139043     0.478017      105.781 
0.000463832     0.219545      120.069 
0.00315476     0.375766      115.201 
0.000743858     0.223607      116.565 
0.000454062     0.482701      103.173 
0.00477716     0.485077      104.323 
0.00109379     0.224722      122.276 
0.000136689     0.250799      66.5014 
0.000132721     0.264197      60.5241 
0.000128864     0.269258      58.6713 
0.000250128     0.230217      124.380 
0.000745283     0.362491      114.444 
0.000621006     0.228254      118.811 
0.000250841     0.274591      56.8887 
0.000124490     0.371618      113.806 
0.00209027     0.233238      120.964 
0.000122095     0.280178      55.1755 
0.000353509     0.286007      53.5308 
0.00282957     0.358469      112.989 
0.000445538     0.147648      151.699 
0.000335745     0.292062      51.9530 
0.000333280    0.0500000      53.1301 
0.00283013     0.298329      50.4403 
0.000611117    0.0424264      45.0000 
0.000493416     0.237065      117.646 
0.00151060     0.143178      155.225 
0.000749089     0.487647      105.461 
0.00119913     0.492443      102.907 
0.000629899     0.238537      123.024 
0.000823984    0.0500000      36.8699 
0.00351453     0.241868      119.745 
0.000175726     0.345398      112.109 
0.00160323     0.354683      111.501 
0.00412115    0.0921954     -77.4712 
0.000631763    0.0583095      30.9638 
0.00168523     0.494773      104.036 
0.00464564     0.199249      17.5256 
0.00466267     0.341760      110.556 
0.00525908     0.139284      158.962 
0.000851060     0.497293      105.154 
0.000764914     0.351141      109.983 
0.000327759    0.0447213      26.5651 
0.000420465     0.502195      102.653 
0.00173511     0.563028      123.408 
0.00148961     0.290689      49.1849 
0.000699966     0.508035      100.204 
0.00105034    0.0905538     -83.6598 
0.00139813     0.506360      99.0903 
0.000482475     0.246982      121.759 
0.00191371     0.571402      122.856 
0.00148090     0.612944      151.763 
0.000294046     0.169706     -135.000 
0.000855898     0.504876      97.9696 
0.000354075     0.176918     -137.291 
0.000722662     0.283196      47.8624 
0.000676604     0.255539      120.579 
0.000462417    0.0948683     -71.5651 
0.000226154     0.184391     -139.399 
0.000609762     0.192094     -141.340 
0.000696506     0.503587      96.8428 
0.000245566    0.0984886     -66.0375 
0.000119106    0.0943398     -57.9946 
! Tentative model.
! Flux (Jy) Radius (mas)  Theta (deg)  Major (mas)  Axial ratio   Phi (deg) T \
! Freq (Hz)     SpecIndex
0.00104097      1.83674      54.7524 
-0.00115471      1.76284     -86.7481 
-0.00327448      1.59765      159.864 
-0.000262356      3.97020     -143.707 
-0.00124080      3.59806      148.872 
-0.00296560      3.97827     -143.793 
-0.00211452      4.23803      143.346 
0.000834150      3.89443      143.983 
0.000252694      2.59600      123.690 
-0.00222571      2.34642     -146.649 
-0.00216443      2.30495     -164.396 
0.00167784      2.60156      123.873 
-0.00135082      2.29820     -134.471 
0.00196320      3.95171     -148.241 
0.000240267      1.85068      54.6783 
0.00164535      1.21655     -136.332 
0.00117909      2.44675      64.5870 
 0.0135801      3.89487     -156.067 
0.000443032      1.84491      54.9317 
0.00191336      1.33540      95.1556 
0.00547484      2.24891     -141.499 
0.00237788      2.40354      160.811 
0.000330632      3.88635      143.897 
0.000545993      1.83098      55.0080 
-0.000524188      3.60662      148.955 
0.000224089      3.76300     -140.175 
0.00212065      3.77709     -140.156 
0.000423376      1.95144      70.5437 
0.000690697      1.81135      34.6551 
0.00355772      2.38799      160.427 
0.000494258      2.46441     -115.733 
0.00206685      1.22381     -136.655 
0.000901896      1.82527      55.2651 
0.000101315      1.94813      70.8210 
0.00380717      2.23486     -141.540 
-0.000837540      2.29120     -134.293 
0.00147950      1.93541      71.0033 
0.000728684      2.51287     -87.2628 
0.000253417      2.44248      64.7989 
-0.000744459      2.14730      160.974 
-0.000744877      2.06475     -135.000 
-0.000380329      1.62432     -80.0738 
-0.000644558      2.90424      124.620 
0.000529778      3.37658      140.890 
0.000190748      1.92003     -127.168 
-0.000288826      2.35478     -146.782 
-9.67028e-05      3.60312      145.516 
0.000697614      3.94321     -148.164 
-0.00368660      2.36863     -146.712 
-0.00136143      4.23001      143.266 
-0.000591046      3.59489      145.426 
-0.000450874      2.20002      46.6576 
-0.00156189      2.65731     -158.359 
0.000452805      2.46876     -115.942 
-0.00125476      2.29532     -164.329 
-0.000254783      1.98761      106.064 
0.00193462      3.20751     -170.127 
0.000444030      1.81959      34.4761 
-0.000181368      2.47073     -95.3414 
-0.000253489      2.61543     -109.197 
-0.000657638      1.63248     -80.4800 
-8.98248e-05      1.98487      105.787 
-0.000502950      1.36418      115.626 
-0.000741306      2.47168     -95.5722 
0.000164507      3.90032      143.865 
-0.00116254      1.92107     -66.3706 
0.000570064      3.55924      170.458 
0.00122909      2.45978     -116.044 
-0.00108991      2.14114      160.634 
0.00162062      3.10928      175.573 
-0.000569656      2.19317      46.8476 
-0.000641437      2.28423     -134.113 
-0.000402326      2.89857      124.458 
0.00257891      1.83349      34.5568 
0.000545792      1.97426     -142.201 
0.000395309      2.50288     -87.2519 
0.00162359      3.47131      138.504 
0.000437989      3.94028      141.181 
0.000441812      1.33634      95.5826 
0.000230076      2.24199     -114.507 
0.000434950      3.78477     -140.253 
-0.000815293      2.86541     -57.2528 
-0.000150482      1.76343     -86.4237 
-0.000296741      1.36894      115.067 
-0.000858002      2.18634      47.0388 
-0.00167240      4.22200      143.184 
-0.00168963     0.931933     -86.3086 
0.000692735      1.01912     -137.386 
-0.000212065      2.76031     -170.196 
-0.000699532      2.27009     -134.108 
-0.00216211      2.60910     -68.6472 
-0.000286024      2.47267     -95.8028 
0.000214398      3.38290      140.758 
0.000847037      1.93217      71.2837 
-0.000146585      1.67171      41.6051 
0.000410944      2.50242     -87.4806 
0.000143188      2.66327      118.971 
-0.000204346      1.99449      105.709 
-0.000900118      1.68582      41.6335 
-0.000460385      2.30766     -164.157 
0.000278088      3.55760      170.617 
0.00148070      1.98217     -142.379 
0.00130929      3.21908     -169.982 
0.000402665      2.24615     -114.740 
-0.000192664      2.09538     -42.2921 
0.000135486      3.89225      143.778 
-0.000510414      1.75482     -85.7515 
-0.000559709      3.00007      179.618 
6.95828e-05      1.83918      55.1866 
-0.000270917      1.66604     -49.1376 
-0.000396530      2.13171      160.545 
-0.000923720      1.36473      114.687 
-0.000132146      3.58666      145.335 
0.000901070      1.23794     -136.637 
0.000261394      2.67202      118.867 
0.000311765      3.11231     -124.660 
0.000735181      3.93249      141.090 
-0.000130814      2.48262     -95.7795 
-0.00387325      1.69331      41.4087 
0.000188209      3.39065      140.865 
-0.000131710      2.17954      47.2312 
-6.60148e-05      2.07889     -135.000 
-0.000377140      1.92510     -66.0980 
0.000778379     0.673647      84.0355 
-0.00181577      2.26314     -133.926 
-0.00166310      2.17221      47.0521 
-0.000242520      1.67260     -48.8785 
-0.000125695      2.08598     -135.194 
0.000563224      3.54773      170.591 
-0.000525675      2.48365     -96.0090 
-0.000366633      2.19002      179.738 
0.000633100      1.51083     -88.1035 
0.000341769      3.79247     -140.349 
-0.000665340      2.46028     -161.270 
0.000122953      3.90623      143.746 
-0.000406485      1.58701      138.576 
0.000351008      2.50200     -87.7094 
0.000292869      3.46383      138.394 
0.000292128      2.25942     -114.864 
0.000447906      2.66721      118.679 
0.000284328      1.02650     -137.764 
-0.000120184     0.907359      58.0616 
0.000661751      3.84397     -157.839 
-0.000562607      1.64073     -80.8821 
0.000284573      3.89817      143.659 
-0.000328259      2.73891     -170.331 
0.000831739      2.31812     -70.8616 
-0.000728826     0.921141      57.8628 
0.000227787      2.46418     -116.253 
-0.000548437      2.20000      180.000 
-0.000217162      1.15434      31.9002 
-0.00150691      4.21400      143.103 
-5.78034e-05      1.92627     -66.7624 
-0.00135643      2.16541      47.2457 
0.000274388     0.504876      97.9696 
-0.000270398      1.74645     -85.0729 
-0.000901051      2.32034     -54.1179 
0.000531810      3.21736     -170.157 
0.000382277      3.93102      140.885 
-0.000213969      1.74734      84.7462 
0.000108739      2.50162     -87.9382 
-0.000342510      2.85701     -57.1443 
-5.44359e-05      3.57844      145.244 
0.000413897      3.91215      143.628 
0.000435619      2.25524     -114.633 
0.000624761      2.47316     -116.151 
0.000725326     0.674759      83.1910 
-0.000457782      2.48471     -96.2383 
-0.000698686      2.37699     -146.845 
5.36135e-05      1.84174      34.3803 
0.00101662      3.11801     -124.811 
0.000554593      3.46469      138.627 
0.000152614      1.91951      71.4707 
0.00123211      1.85564      34.4608 
0.000307249      2.49163     -87.9300 
-0.00144773      2.62206     -68.5232 
0.00115917      1.24523     -136.953 
-0.000311028      1.57877      137.824 
0.000308876      3.92959      140.680 
-0.000873201      1.64906     -81.2803 
0.000301783      1.51053     -88.4826 
-0.000102875      1.88130      177.868 
0.000344907     0.512445      95.5993 
0.000152091      1.23110     -136.975 
-0.000442532      2.62574     -68.3202 
0.000100534      1.03740      72.6130 
0.000474652     0.513517      96.7098 
0.000454635      3.80017     -140.445 
5.05312e-05      2.23788      79.4433 
-0.000602743      2.21000      180.000 
-0.000659712      1.43892      109.065 
9.89334e-05      3.40472      140.841 
-0.000388680      1.87131      177.856 
0.000393553      3.92822      140.475 
0.00151007      2.80644     -114.191 
-0.000239005      1.12894      124.535 
-0.000632610      1.43279      109.573 
0.000666070      3.63849     -151.251 
-0.000969023      2.31815     -53.7727 
-9.77168e-05      2.75045     -170.161 
0.000379027      3.91809      143.510 
0.000239352      2.42167     -87.8701 
0.000321196      1.24595      71.2742 
-0.000188780      1.60860      141.563 
0.000349078      2.61773     -151.477 
-4.80711e-05      1.74828      84.4198 
0.000418153      3.93459      140.362 
0.000614216      1.52030     -88.8693 
0.000176059      3.84775     -157.701 
9.34804e-05      1.03392     -138.136 
0.000482254      2.67122      118.388 
-0.000851593      1.35989      115.246 
-4.77005e-05      3.60323      148.736 
-0.000273362      4.20215     -142.639 
0.000258816      1.92271      71.1881 
-9.30041e-05      2.74060     -170.125 
-0.000403782      2.48582     -96.4675 
-9.25564e-05      3.74418      159.193 
0.000736021      1.79622      71.1616 
0.000537566      2.43132     -88.1144 
-4.67071e-05      2.44761     -161.417 
-0.000315454      1.88170      177.563 
0.000210486      1.02786      72.4465 
-0.00114803     0.926499      57.3391 
0.000225588      3.92404      143.393 
-0.000649496      4.22001      142.994 
-0.000215255      2.45709     -161.491 
-0.000807046      2.39084     -146.775 
-0.000210924      1.61028      142.063 
-0.000337484      1.93155     -67.1520 
0.00285913      3.93329      140.157 
-8.78344e-05      2.72905     -170.296 
8.87544e-05      3.54611      170.750 
0.000397374      3.12373     -124.962 
4.44235e-05      1.04139     -138.504 
-0.000214077      1.65895     -81.3326 
0.000218221      3.93803      143.363 
-8.74999e-05      4.09414      147.164 
0.00105040      2.32433     -71.1753 
-0.000683556      3.22579      158.924 
-0.000211713      1.91317      176.704 
4.34595e-05      3.57347     -175.023 
0.000478971      3.22893     -170.013 
0.000208844      1.05551     -138.457 
0.000243076      3.53624      170.724 
4.29850e-05      2.48099     -88.3832 
-0.00134769      2.31603     -53.4270 
-0.000813380      4.20823     -142.531 
0.000538004      3.94401      143.246 
-0.000329212      3.28672     -129.939 
-8.51933e-05      4.09957      147.046 
-0.00113865      3.24472      162.235 
-0.000126621      4.10805      150.065 
0.00407672      2.81055     -114.376 
-0.000284499      1.89169      177.576 
-0.000526088      2.48697     -96.6964 
0.000449206      2.44100     -88.3567 
-0.000363572      4.09119      146.970 
0.000784067     0.837437      78.2875 
4.17904e-05      3.57262     -175.183 
0.00133855      1.87779      34.3671 
0.000416287      1.24920      70.8398 
-0.000474677      4.11305      149.944 
0.000425341      1.63686      116.095 
-0.000118195      2.71919     -170.261 
-0.00417362      4.21203      142.912 
0.000118642      2.47758     -116.358 
0.000767389      3.95000      143.130 
7.97293e-05      3.62972     -151.175 
-0.000115989     0.932631     -85.6955 
0.000488374      2.53032      164.646 
-0.000156674      1.92315      176.721 
0.000223207      2.25109     -114.402 
3.98163e-05      3.56265     -175.170 
0.000723139      1.80892      70.9641 
-0.000569134      3.58560     -170.853 
0.000116343      1.06301     -138.814 
-0.000231318      1.93546     -66.8792 
0.000339373     0.521536      94.3987 
7.59475e-05      3.85156     -157.563 
-0.000455806      2.63503     -68.4005 
0.000380932      4.21911     -147.289 
0.000412028      2.45073     -88.5971 
0.00132873      1.25256     -137.265 
-0.000153153      3.29314     -130.073 
0.000295762      2.58260      130.288 
7.55955e-05      2.44074     -88.5914 
-7.26044e-05      2.24900     -133.919 
-3.84510e-05      4.08281      146.894 
3.82475e-05      2.62452      136.698 
-0.000114070      2.49690     -96.6696 
-3.81827e-05      4.09664      146.853 
-0.000149957      1.90168      177.589 
3.80485e-05      2.66648      118.199 
0.000175673      3.55186     -175.317 
0.000109988      3.64331     -151.113 
-0.000474520      4.08828      146.776 
-0.000998150      3.26369     -149.428 
-0.000148085      4.00839     -143.931 
-0.000112108      2.91385     -120.525 
7.45365e-05      3.53464      170.884 
-0.000110303      1.93313      176.738 
-0.000327004      4.11807      149.824 
-0.000632139      2.49808     -96.8974 
0.000212774      2.67529      118.098 
-0.000181124      3.30080     -129.961 
-3.69420e-05      2.46658     -161.565 
-0.000178277      1.94077     -67.2666 
-0.000888588      2.92246     -120.426 
-0.00148387      2.31009     -53.6262 
0.00104825      4.22753     -147.362 
0.000141936      3.52477      170.858 
-0.000107304      1.91167      177.602 
-7.20858e-05      2.70934     -170.225 
0.00186443      3.94200      143.043 
0.000414209      2.34164      157.926 
-7.23358e-05      1.91212      177.302 
-0.000475046      3.23155      159.153 
-0.000581592      3.59547     -170.878 
-7.16453e-05      2.27068     -148.690 
-0.000822863      4.01648     -144.015 
3.58779e-05      2.60895     -151.372 
0.000174813      1.64128      116.409 
0.000378486      2.45051     -88.8309 
3.55042e-05      1.08467     -139.112 
-0.000441651      1.70082      41.1859 
0.000206688     0.531507      94.3160 
0.000368476      2.52335      164.366 
-3.52181e-05      3.59390     -171.036 
7.01149e-05      2.02633      85.4712 
-0.000444737      4.07991      146.699 
-0.000408480      4.12311      149.704 
0.000138784      1.49255     -11.9875 
3.50118e-05      3.23878     -170.043 
-0.000202643      2.27590     -148.475 
-0.000138523      1.45499     -23.9225 
0.000104035      2.44051     -88.8261 
-0.000137709      1.92211      177.316 
0.00283523      4.23293     -147.249 
-0.000294912      3.30723     -130.094 
-6.85338e-05      1.93259      177.034 
0.000135649      2.58907      130.457 
6.61483e-05      1.53013     -89.2511 
-6.85919e-05      2.69948     -170.189 
0.000170148      2.02556      85.7532 
6.75994e-05      3.65207     -151.189 
-0.000133683      4.21617     -142.614 
0.000201389      1.25865      70.9892 
-0.000335016      1.44586     -24.0832 
0.000134960      1.50233     -11.9083 
-0.000100651      1.42888     -29.7946 
0.000200438      1.49486     -158.412 
0.000364855      2.72655      55.6105 
0.000522097     0.827647      78.1470 
0.000133955      1.63233      116.565 
-0.000167061      1.44516      108.560 
0.000907993      3.24052     -169.869 
-9.82238e-05      1.94466     -66.9948 
0.000860436      3.55106     -175.478 
-0.000130984      2.16490      46.8717 
-0.000326409      3.25424      162.289 
-3.34428e-05      1.93210      177.330 
0.000328782      1.64128      26.4089 
9.90702e-05      2.67060      117.908 
0.00300808      2.45506      57.4751 
3.33631e-05      1.51420     -12.2005 
6.63529e-05      3.52319      171.019 
-0.000986935      2.49930     -97.1250 
0.000164771      1.52398     -12.1210 
-0.000293151      4.07156      146.622 
-3.30817e-05      2.70120     -169.980 
0.000128645      2.25675     -141.657 
9.86178e-05      2.44033     -89.0608 
-0.000487929      1.60415      142.344 
-6.57767e-05      1.42394     -29.4454 
0.000415050      2.33380     -71.2545 
3.29039e-05      3.10409      124.765 
0.000353423      3.51332      170.993 
0.000351009      1.63683      116.878 
9.74668e-05      2.45033     -89.0646 
3.27543e-05      2.59557      130.625 
0.000255691      1.26194      70.5600 
0.000800256      2.45815      57.7970 
0.000532572      2.33617      157.607 
3.27268e-05      1.50416     -158.552 
-0.000162225      2.87513      60.4034 
0.000162109      1.53375     -12.0426 
-0.000977725      2.30801     -53.2791 
-0.000161326      1.44087     -24.6085 
0.00359124      2.45284      57.9946 
-0.000160603      1.41524     -29.6445 
-3.25834e-05      1.44201      108.184 
0.000191590      3.09840      124.613 
0.000161089      1.51714     -158.339 
-0.000368748      4.12816      149.584 
3.24842e-05      2.02485      86.0353 
0.000127408      1.88345      34.6182 
0.000351142      2.72092      55.7843 
-0.00137165      2.61842     -68.7268 
-0.000191459      1.44845      107.684 
0.000811602      1.65024      26.2545 
0.000563980      2.22050     -45.7298 
-3.21893e-05     0.933434     -85.0834 
-0.00170641      2.92754     -120.595 
0.000190614      2.44018     -89.2956 
0.000159881      1.54353     -11.9651 
-0.000532104      2.88009      60.2304 
-0.000281511      2.65949     -108.639 
6.33672e-05      2.03482      86.0548 
-9.46866e-05      1.89082      169.641 
0.000188077      2.66593      117.719 
-0.000251503      4.07707      146.505 
6.35414e-05      2.48652     -116.771 
0.000220166      1.52643     -158.477 
-0.000219620      1.43178     -24.7751 
-0.00724893      4.20406      142.830 
9.39765e-05      2.53298      164.427 
-0.000219258      3.27231     -149.517 
0.000126394      1.55332     -11.8887 
-0.000217857      3.26377      162.342 
3.16579e-05      3.75069     -148.853 
-3.14942e-05      1.40656     -29.8459 
-0.000184207      2.17175      46.6792 
-0.000155566      1.20204      86.6615 
0.000311704      3.92562      140.064 
0.000155394      2.49104     -116.977 
0.000850583     0.815843      78.6901 
0.000217255      3.74214     -148.774 
0.000218384      1.56311     -11.8131 
0.000463467      2.71531      55.9588 
0.000308891      3.50344      170.968 
-3.13073e-05      1.41032     -29.2914 
9.30839e-05      3.17630     -156.825 
0.000216649      2.44008     -89.5304 
-0.000185552      1.40161     -29.4914 
3.11405e-05      1.87321     -77.6703 
3.11371e-05      3.66565     -151.128 
-0.000184842      3.10693     -165.651 
-3.10697e-05      2.67167     -169.868 
0.000275329      3.09273      124.461 
3.10300e-05     0.551453      94.1596 
3.10397e-05      1.53942     -158.268 
-0.000122898      1.45499      107.190 
-3.09799e-05      1.68671      41.1540 
0.000184329      1.54871     -158.405 
0.000123451      1.57290     -11.7386 
9.21753e-05      1.27138      70.7100 
0.000848334      3.93402      142.955 
0.00103198      3.91921      140.176 
3.08611e-05      1.54003     -89.6280 
-0.000425779      4.06873      146.427 
0.000274241      1.63248      117.350 
-0.000245707      3.27739     -149.366 
-0.000275354      1.42271     -24.9439 
0.00170698      1.70074     -24.3045 
-0.000453863      4.02457     -144.098 
-0.000181421      1.20266      86.1859 
0.000152667      1.87537     -77.3718 
3.07794e-05      1.82165      70.7693 
-9.17614e-05      2.66182     -169.830 
-0.00170844      2.50056     -97.3524 
6.13809e-05      2.79217     -149.670 
0.00271622      1.58474     -12.0190 
-0.00488315      2.31400     -53.0806 
3.06718e-05      2.66130      117.528 
0.000513599      2.49996     -116.873 
-0.000484207      2.38411      49.7636 
0.000840320      2.80080     -149.773 
-0.000989092      2.88383      60.5015 
0.000180170      1.54000     -90.0000 
-0.000182361      1.39671     -29.1343 
-0.000179780      3.31368     -130.226 
3.05421e-05      2.33060     -71.4873 
0.000121380      3.73359     -148.694 
0.00245279      2.21335     -45.5491 
-0.000181765      2.66271     -108.843 
0.000151572      2.44002     -89.7652 
0.000483486      2.70972      56.1340 
0.000242175      3.50189      171.129 
0.000181352      1.27472      70.2857 
-0.000569784      3.00042     -142.175 
0.000449906      3.56025     -175.651 
0.000330424      1.58269     -11.6649 
-0.000656370      1.45207      106.813 
-0.000180863      3.10446     -165.829 
3.03393e-05      2.32545     -156.963 
0.000150583      1.55801     -158.540 
0.000984307      1.65922      26.1018 
-9.08548e-05      1.41792     -25.4807 
0.000865216      2.44969      57.6723 
-6.01812e-05      3.27330      162.395 
-6.04784e-05      2.65198     -169.792 
0.000180399      2.95134     -147.171 
6.02796e-05     0.630000      90.0000 
0.000150136      1.86561     -77.3046 
0.000359432      3.08709      124.308 
-0.000269906      1.40890     -25.6557 
-0.000240145      1.39187     -28.7747 
-3.01193e-05     0.936483     -83.2544 
0.000209746      1.63710      117.661 
0.000208998      1.25208     -136.618 
0.000149791      2.44000     -90.0000 
-8.99020e-05      2.17862      46.4879 
0.000388021      3.49201      171.104 
-0.000445616      2.66897     -108.571 
0.000149370      2.32693      157.513 
-2.99824e-05      2.07022      179.170 
-8.96660e-05      2.64214     -169.753 
-5.99002e-05      4.05487      146.467 
0.000119135      3.72840     -148.825 
-2.99700e-05     0.937710     -82.6476 
0.000268891      2.71803      56.2515 
-0.000801060      2.38533      50.1022 
8.92751e-05     0.640078      89.1048 
0.00202168      3.91281      140.288 
-0.000533678      4.06041      146.349 
2.98770e-05      1.36235      49.7636 
-0.000238113      1.38708     -28.4127 
0.000178642      1.28413      70.4362 
-0.000118854      3.10203     -166.009 
2.98292e-05      1.56732     -158.674 
0.000982049      2.50450     -117.077 
0.000355381      2.95975     -147.276 
-8.93151e-05     0.950368     -81.5289 
0.000177702      1.36883      49.4441 
-0.000118893      2.17111      45.9331 
2.97792e-05      1.62825      117.824 
8.92408e-05      2.43002     -90.2358 
0.000118844      1.58028     -158.468 
0.000118863      3.92001      142.984 
-5.94260e-05      1.40428     -26.2001 
0.000266704      1.63294      118.134 
0.00180765      2.71249      56.4271 
0.000118489      1.86783     -77.0054 
0.000355280      2.33077      157.286 
-0.000388581      2.08010      179.449 
0.000148167      3.91400      143.101 
-5.92523e-05      2.63230     -169.715 
0.000236803      2.43008     -90.4716 
-2.96338e-05      1.39531     -26.3814 
0.000354798      3.08146      124.154 
-2.96228e-05      3.28283      162.448 
-2.96801e-05      1.39119     -27.8545 
2.96585e-05      2.38160      150.852 
-8.88868e-05     0.951893     -80.9335 
0.00111181      3.48213      171.079 
8.87568e-05      2.39033      150.969 
0.000177574      2.07711      128.746 
-2.96337e-05      1.39086     -26.9335 
0.000147731      3.25037     -169.900 
-0.00221166      2.93264     -120.763 
-0.000413509      1.38235     -28.0481 
0.000118204      1.24483     -136.302 
-0.000925142      3.00832     -142.292 
-0.00115211      4.21011      142.722 
0.000952137      2.80945     -149.876 
-0.000147640      2.17807      45.7441 
-0.000177213      3.10934     -166.232 
0.000592180      3.90000      143.130 
0.000414487      3.56948     -175.823 
0.000118185      1.58959     -158.600 
0.000265744     0.806040      78.5507 
5.90609e-05      3.71985     -148.746 
-0.000118081      1.38654     -27.4891 
0.000413482      2.39520      150.760 
-8.85466e-05     0.953520     -80.3401 
-0.000413243      2.50186     -97.5795 
0.000384187      2.43019     -90.7073 
-5.90050e-05      2.62246     -169.676 
-0.000147636      2.88877      60.3289 
2.95141e-05     0.650308      88.2376 
0.000929294      3.88600      143.160 
-0.000947404      2.39176      49.9184 
8.85147e-05      1.66820      25.9506 
0.000204346      2.06932      128.919 
-0.000327373      2.39075      168.173 
0.000118176      1.24459     -135.651 
-8.84732e-05     0.955249     -79.7488 
0.000933675      2.06306      128.703 
2.94864e-05      3.85861      147.381 
8.86431e-05      1.59891     -158.731 
0.000533697      2.46676     -76.6398 
-0.00199735      2.64237      54.0842 
0.000177289      1.63768      118.443 
0.00176335      3.85020      147.301 
0.000295723      1.67260      26.2587 
-0.000267048      2.67217     -108.774 
-0.000207904      1.37768     -27.6811 
-5.90718e-05      2.63410     -169.501 
-5.91094e-05      2.18506      45.5563 
-8.97419e-05      1.59625      142.125 
-8.86931e-05      4.04654      146.388 
-0.000238383      1.37354     -28.2443 
-2.95391e-05     0.957079     -79.1597 
2.95401e-05      3.24863     -170.074 
-0.00157366      3.71383      136.637 
-0.00268633      2.50922     -97.0967 
-5.92151e-05      3.29237      162.501 
0.000119056      3.07586      124.000 
-0.000813834     0.814002     -37.0107 
0.000119166      3.70799     -148.453 
-8.89421e-05     0.970824     -78.1113 
0.00111992      2.45473     -76.8129 
0.000331912     0.808084      77.8557 
-0.000149631      3.31489     -129.983 
-0.000149409      2.62427     -169.461 
0.000208676      1.63371      118.918 
0.000359497      2.40393      150.876 
0.000418157      2.43033     -90.9431 
-0.000579413      4.05209      146.271 
0.000119490      2.96816     -147.381 
-0.000422783      2.61480     -68.9310 
0.000600453      1.68158      26.1079 
0.000420651      3.90601      143.013 
-0.000149704      3.30191      162.553 
-0.000119563     0.972934     -77.5351 
-5.98372e-05      3.11905     -166.276 
-8.97038e-05      2.87139      117.368 
0.00423368      2.70697      56.6035 
-0.00164014      2.39942      50.0721 
-2.98511e-05      2.19208      45.3696 
0.00105881      3.56877     -175.983 
-0.00105537      2.67845     -108.503 
9.02493e-05      1.62117     -158.658 
0.000182774      2.32155      157.190 
0.000274242      1.29356      70.5845 
0.000302258      1.63857      119.224 
0.000364063      2.42074     -91.4203 
-0.000632835      2.86681      117.191 
-0.000182231     0.975141     -76.9613 
-3.01903e-05      2.19920      45.5527 
-0.00516653      4.21807      142.804 
0.00125426      3.89200      143.042 
0.000442036      3.69947     -148.372 
-0.000152097      3.31145      162.605 
-0.000122329      2.61444     -169.421 
-3.02832e-05      2.38097      168.124 
3.03119e-05      2.97357     -147.218 
0.00128964      3.90512      140.194 
0.000712525      3.07028      123.845 
0.000152367      2.41267      150.992 
3.03324e-05      3.92604      142.867 
0.000152740      1.69163     -24.4440 
-0.000998536      1.36883     -27.8755 
-0.00118041     0.806040     -37.4386 
-9.20706e-05      2.36913      168.311 
0.00270375      2.60279     -100.403 
0.000651339      1.69056      25.9588 
-6.12843e-05      3.12642     -166.497 
0.000307926      1.64347      119.529 
0.000186903      1.63049     -158.786 
0.000865376      2.80585     -149.597 
0.00173597      2.20622     -45.3673 
-3.05938e-05      2.20658      46.1017 
-0.000279562      1.62265      38.4944 
0.000561142      2.43051     -91.1788 
0.000405037      2.42627      150.900 
0.000123372      2.50888     -116.769 
-0.000473122     0.992018     -75.4034 
-9.28393e-05      2.09022      179.178 
-0.000219142      3.32099      162.656 
9.30594e-05      1.68671     -24.8938 
-0.000157679      2.87892      60.6748 
0.00124729      2.45247     -77.0404 
-6.20403e-05      2.20690      46.4688 
-9.36482e-05      2.60548     -68.8520 
6.24820e-05      2.34327     -71.3331 
-0.000124615      3.65203     -143.350 
6.19975e-05     0.810247      77.1644 
-3.09526e-05      3.01624     -142.408 
0.000385277      2.05526      128.877 
-6.21736e-05      2.60188     -69.0574 
-0.000519451      2.39084      123.225 
-9.36026e-05      2.68812     -107.761 
-3.10310e-05      2.25887     -148.210 
-0.00352888      2.40585      49.8895 
0.000989588      4.31335      145.389 
-0.000157676      3.01445     -142.142 
-3.11669e-05      3.13614     -166.540 
0.000347712      1.64842      119.831 
6.26711e-05      2.02252     -128.173 
-0.000523994      3.72110      136.742 
0.000320669     0.820000      77.3196 
0.000579257      2.50440     -116.565 
-0.000842767      2.53823      52.3626 
-0.000191108      3.64401     -143.256 
-3.14705e-05      2.68168     -108.030 
6.34066e-05      1.20603     -52.7500 
-0.00148049      2.67486     -54.5868 
-3.15852e-05      2.10021      179.182 
0.000635543      2.03039     -127.999 
-0.00277706      2.51048     -97.3232 
-0.000994928      2.65047      54.2110 
0.000818384      1.69956      25.8112 
-0.000160891      1.63049      38.2756 
0.000290419      2.43502      151.014 
0.000396514      1.63982     -158.912 
-6.49776e-05      2.21380      46.2812 
0.000196208      2.30708     -102.771 
-0.000298130      3.33054      162.708 
0.000332756      3.89873      140.307 
0.000164572      1.20000     -53.1301 
0.000458159      1.65342      120.132 
-0.000265375      3.02235     -142.258 
0.000232190      2.43074     -91.4144 
-0.000307047      4.03822      146.310 
-0.000396382      2.67529     -108.299 
3.22147e-05      2.34649     -71.1018 
0.000902482      3.86401      147.256 
6.50658e-05      1.75368      134.538 
0.00107633      3.90643      140.401 
-0.000197098      3.63600     -143.162 
-0.000641239     0.994585     -74.8459 
-0.000275161      2.50458     -81.9670 
0.000132518      1.58685     -12.3722 
0.00150504      4.32726      145.355 
3.27670e-05      2.44861      150.923 
0.000620850      3.69096     -148.291 
-0.000133046      1.63221      37.7826 
0.000437691      2.45736      151.036 
3.29685e-05      2.42101     -91.6569 
-0.000373326      2.50599     -81.7406 
6.64830e-05      3.39413      138.703 
-0.000135627      3.51040      175.589 
-0.000134543      2.93777     -120.930 
0.000272178      2.49994     -116.360 
-0.000484589      2.54615      52.5000 
0.000100861     0.822253      76.6398 
-0.000864213      4.17445     -148.518 
0.000306626      1.07815     -40.4860 
0.00169849      2.70148      56.7805 
0.000411652      1.65846      120.431 
-3.34783e-05      2.59255     -68.9784 
3.35668e-05      2.81448     -149.700 
-0.000170880      3.61808     -142.750 
-3.36559e-05      2.87404      60.8486 
0.000139281      2.55861     -125.616 
-0.000522167      2.82349      56.7039 
0.000556896      2.32280      48.1411 
0.000278916      2.30931     -103.013 
-0.000103068      2.21416      46.6470 
6.89102e-05      2.42132     -91.8934 
0.000104144      1.19403     -53.5140 
0.000279232      1.70857      25.6652 
-6.96329e-05      2.84881      116.925 
0.000209684      2.83933      157.861 
0.000245853      2.10212      42.4937 
0.000104186      1.75368      45.4621 
-0.000105049      1.67505     -175.549 
0.000423342      3.87243      147.336 
0.000140216      2.46611      151.148 
0.000176327      1.08577     -40.1434 
7.07153e-05      1.37011     -146.310 
0.000212234      2.53160     -87.9627 
-7.09454e-05      3.34009      162.759 
-0.000177497      1.00960     -73.8987 
7.10756e-05      1.64915     -159.037 
0.000178017      1.66355      120.727 
7.10724e-05      1.76071      45.2301 
-0.000107011     0.358469     -67.0113 
-3.54326e-05      3.61012     -142.654 
0.000107201      2.48845      151.169 
