! Center RA: 08 30 52.08619,  Dec: +24 10 59.82039 (2000.0)
! Established model.
! Flux (Jy) Radius (mas)  Theta (deg)  Major (mas)  Axial ratio   Phi (deg) T \
! Freq (Hz)     SpecIndex
  0.504808      0.00000      0.00000 
 0.0697325    0.0282843     -45.0001 
0.00819172    0.0447214      153.435 
 0.0127039    0.0721110      146.310 
 0.0224904    0.0848528      135.000 
0.00987578    0.0848527     -45.0000 
 0.0190324     0.100000     -36.8699 
0.00609821     0.100000      126.870 
 0.0219597     0.113137      135.000 
 0.0374583     0.113137     -45.0000 
 0.0588917     0.128062      128.660 
 0.0136939     0.128063     -38.6598 
 0.0225969     0.141421     -45.0000 
 0.0260571     0.156205     -39.8056 
 0.0221027     0.141421      135.000 
 0.0106384     0.172047     -35.5377 
0.00965912     0.156205      140.194 
 0.0335811     0.188680     -32.0054 
 0.0338902     0.172046      144.462 
0.000646314     0.188680      32.0054 
0.00436419     0.144222     -123.690 
 0.0195007     0.134164     -116.565 
 0.0178337     0.101980     -101.310 
0.00547877      4.29195      129.327 
0.00231412      4.29483      128.951 
0.00359924      1.54674      130.280 
0.00446252     0.126491     -108.435 
0.00232277     0.197990      45.0000 
0.00172805     0.212603      41.1859 
0.00762060     0.100000     -90.0000 
0.00258777     0.184391      40.6013 
0.00417063     0.141421      45.0000 
0.000725458     0.169706      45.0000 
0.00111890    0.0721110     -56.3100 
0.00116475     0.107703      68.1986 
0.000511534     0.161245     -119.745 
0.000546536     0.121655     -99.4623 
0.00220354      1.84043      137.643 
0.000179235      1.62788      132.510 
0.000113854      1.62936      131.517 
0.000512784      1.82702      138.106 
0.000168634      1.61617      130.986 
0.000191025      1.60312      130.446 
7.46336e-05      1.59022      129.898 
2.66893e-05      1.58405      127.304 
0.00468289      1.10941      146.023 
0.00502670     0.442719      108.435 
0.00381224     0.436807      105.945 
0.00527801     0.447214      100.305 
0.000300636     0.749667      133.919 
0.00166092      1.12606      146.592 
0.000801289     0.447214      116.565 
0.000298407     0.481664      131.634 
0.000402798     0.438634      114.228 
0.00108028     0.468615      129.806 
0.000247061     0.509902      138.180 
0.00162756      1.91552      139.658 
0.00360907      1.93080      140.042 
0.00331237      1.89842      138.417 
0.00554395     0.412311      140.906 
0.00615646     0.250599      61.3895 
 0.0149084     0.260768      57.5288 
0.00966276     0.272029      53.9726 
0.00996617     0.353836      137.291 
0.00596199     0.368782      139.399 
0.00109001     0.384187      141.340 
0.000204738     0.617738      150.945 
0.00143829     0.627694      149.349 
0.00534122     0.325576      137.490 
0.00329508     0.340588      139.764 
0.000612129     0.356090      141.843 
0.00676324     0.116619     -59.0362 
0.00330179     0.161245     -29.7449 
0.00629895     0.116619      149.036 
0.000902819     0.144222     -33.6900 
0.00917542     0.128062     -38.6598 
0.000571457    0.0632455      71.5651 
0.00440972     0.113137     -45.0000 
0.00312828     0.178885     -26.5650 
0.000543407    0.0999999     -53.1301 
0.00409376     0.223607      63.4350 
0.00355220     0.339411      135.000 
0.00998749     0.769675      155.433 
0.00642283      1.18186      113.962 
0.00315060     0.733485      154.134 
0.00209526      1.19013      114.842 
0.000519784     0.325576      132.510 
0.00145115     0.312410      129.806 
0.00183458      1.18962      116.996 
0.000474916     0.284253      129.289 
0.000307480     0.272029      126.027 
0.000722921     0.250599      118.610 
0.00175190     0.697711      152.700 
0.00118927     0.297321      132.274 
0.00145839      4.25737      128.324 
0.00396882      1.91343      138.814 
0.00137855      3.10161      122.358 
0.00287072      3.87319      128.290 
0.00147864      4.26980      128.534 
0.00219507      3.13949      129.572 
0.00239903      2.36888      130.549 
0.00208753      3.09095      122.045 
0.00314183     0.824621      104.036 
0.000437931      1.96540      121.264 
0.000187362      2.71360      122.050 
0.00157403      4.27930      129.120 
0.000508871      2.70304      121.691 
0.00113227      1.95510      120.763 
0.000914727      3.86083      128.057 
0.00135130      3.15227      129.852 
0.000326683      1.88351      138.013 
0.000164472      2.69258      121.329 
0.000275470      2.67918      120.010 
0.000329269      3.10644      123.179 
0.000265505      2.38193      130.914 
0.000273215     0.241661      65.5561 
0.000978034     0.644981      150.255 
0.00121272     0.311127      135.000 
0.00102349     0.662420      151.113 
8.39416e-05     0.680000      151.928 
0.000606427     0.604649      145.784 
0.000197541     0.621289      146.821 
0.00129278     0.120000     -90.0000 
0.00102535     0.312410      50.1944 
0.000969135     0.140000     -90.0000 
0.00278364     0.461736      107.650 
0.00231967     0.161245     -119.745 
0.000304208     0.244131      55.0080 
9.11470e-05     0.196977     -113.962 
0.00377018      1.57544      118.843 
0.000891104      1.92852      139.205 
0.00119702      1.94618      140.421 
0.00123672     0.835464      101.041 
0.000305237      1.19867      115.710 
0.000868984      1.19883      117.848 
-0.00425894     0.164924      14.0363 
0.00632004     0.208806      163.301 
-0.000381815     0.145602      15.9454 
-0.00100892     0.101980      11.3100 
0.00311858    0.0799999     -90.0000 
-0.00129097    0.0824621      14.0363 
-0.00110664    0.0632456      18.4350 
-0.00102815    0.0447213      26.5651 
-0.000689066    0.0282843      45.0001 
-0.00311670    0.0200000      180.000 
0.000922746    0.0824621     -104.036 
0.000735483    0.0894427     -116.565 
-0.00222324    0.0400000      180.000 
0.00271872     0.170880      20.5560 
0.000361138    0.0999999     -126.870 
0.000228468     0.113137     -135.000 
0.000950388     0.215407     -158.199 
0.00101667     0.203961      168.690 
-0.00179068    0.0447214      153.435 
-0.000216435     0.120000      0.00000 
-0.000344577     0.140000      0.00000 
0.000171295     0.128062     -141.340 
0.000312761     0.200998      174.289 
-0.000412899    0.0632456      161.565 
-2.55387e-05     0.161245      7.12503 
-2.80540e-05    0.0894428      153.435 
-0.00161869      1.78908      5.77433 
-0.00147609      1.80898      5.71059 
-0.00169045      4.52831      147.995 
-0.00154117      1.44361     -10.3758 
0.000347335      4.97031      86.3086 
-0.00150265      2.46658     -161.565 
-0.00168755      6.05260      138.885 
0.00186539      4.99027      86.3234 
-0.000531771      1.20000      143.130 
-0.000695219      1.19633      141.789 
0.00144188     0.842140      4.08562 
0.00116806      1.98323     -68.0913 
0.000714065     0.820975      2.79271 
-0.000177990      1.67475      139.844 
-0.000821313      2.44761     -161.417 
0.000788089      1.99078     -67.5572 
-0.000276403      4.14849      142.246 
-0.000528722      1.69009      140.281 
-0.000321673      4.54528      148.128 
0.00119705      3.61159      107.733 
-0.000260423      4.42741      153.435 
-0.000495324      1.42773     -11.3099 
0.000318968      5.97488     -153.778 
0.000992203      6.01960     -153.775 
-0.000382346      4.13270      142.076 
-0.000319697      4.55588      147.915 
-0.000143827      4.08705      130.236 
-0.000143785      3.58508      169.066 
-0.000183752      4.44531      153.550 
-0.000360793      1.71825      140.194 
-0.000364830      4.06163     -8.20990 
-0.000685588      3.56545      169.005 
-0.000402077      4.10000      130.450 
-0.000760180      4.16509     -113.488 
0.000167001      5.46070     -133.516 
-0.000505807      1.44734     -11.1547 
0.000698046      4.98903      86.5526 
-0.000124655      4.12931      141.687 
-0.000125195      4.68094     -24.4845 
-0.000557488      1.73367      140.618 
0.000923977      6.38150     -151.347 
0.000159293      2.96122     -69.8516 
-0.000155899      4.57283      148.048 
0.000765873      2.13785     -117.284 
-0.000488676      4.69915     -24.3834 
-0.000148341      4.11364      141.514 
0.000759521      3.68505      35.5015 
-0.000303567      6.88186      144.462 
0.000405060      6.33782      125.496 
0.000244323      3.48769      14.2753 
-7.66344e-05      6.30635      152.622 
0.000150683      2.12876     -116.806 
-0.000466920      3.53010      168.563 
-0.000113552      1.86473      38.4679 
-0.000609146      3.11602      36.6492 
-0.000389928      4.08142     -8.16981 
0.000534918      5.47449     -133.668 
0.000811222      5.66230      74.6384 
0.000110185      2.24321      50.0636 
-3.74417e-05      4.40132      62.3870 
-0.000207276      4.57930      148.392 
0.000139105      3.04059      91.1307 
0.00115073      5.48802      120.677 
-0.000243642      4.41062      62.1568 
-0.000222249      1.86815      37.6060 
-0.000268965      1.85235      37.9835 
7.19510e-05      2.15824     -7.45430 
-0.000394866      6.86560      144.365 
3.56562e-05      4.70918     -155.939 
0.000150137      2.23043      50.4576 
-0.000564873      6.03755      138.761 
0.000712810      6.34255      125.244 
-0.000543377      4.17310     -113.739 
3.49758e-05      1.43024      159.538 
0.000216766      2.17807     -7.38604 
0.000161664      4.72745     -156.038 
-0.000163378      3.48310     -132.207 
0.000568265      5.45777      94.6242 
-0.000935395      2.03578      100.758 
3.41046e-05      1.41152      159.254 
-0.000378793      1.45134     -11.9293 
-0.000127214      4.11300      130.662 
-3.37866e-05      4.09800      141.340 
3.36743e-05      2.33032     -129.428 
-3.36355e-05      2.58805      16.6144 
6.62867e-05      6.34946      125.643 
-0.000551404      1.74917      141.033 
-6.61348e-05      5.51507      71.8279 
0.000276670      1.42338      160.292 
0.000748164      2.91925     -121.839 
0.000125165      3.38892      59.5002 
-9.69709e-05      1.03769     -117.553 
-0.000176288      2.48556     -161.711 
0.000150508      3.49285     -113.629 
-0.000201153      1.04307      94.3987 
-0.000268150      2.56889      16.7420 
-0.00156999      5.52134      71.6307 
-0.000609058      4.37433      62.4977 
-0.000308636      2.74882     -131.460 
-0.000899659      1.84391     -114.341 
0.000583601      6.04834      127.476 
-0.000112211      1.01074     -117.072 
-3.05293e-05      4.59635      148.523 
-8.58869e-05      1.16825      141.953 
-0.000172127      6.84935      144.268 
-0.000266060      3.13209      36.4309 
0.000132104      2.37124     -129.867 
0.000156688      5.99283     -153.863 
2.92213e-05     0.822192      4.18492 
-0.000482049      4.18120     -113.990 
0.000250797      4.25516      55.3389 
0.000178097      4.98786      86.7819 
-0.000310731      1.00180     -116.053 
-0.00107014      5.52768      71.4339 
-0.000256619      1.47092     -11.7683 
-0.000215160      5.33670     -147.084 
0.000219681      3.72924      35.3948 
-0.000260475      5.11124      50.0796 
0.000327544      1.40456      160.017 
8.07907e-05      4.74573     -156.136 
0.000157294      3.46653     -113.459 
7.97802e-05      5.22395      117.350 
-2.74941e-05      4.12606      130.872 
0.000241727      3.36155      59.6209 
-0.000181958      6.83313      144.170 
-0.000127952      6.27898      63.1085 
0.000486702      1.98010     -66.8014 
-0.000145044      1.76918      5.83949 
-7.55492e-05      4.12820      130.481 
-0.000229798      1.15256      141.340 
0.00103449      5.48832     -133.819 
-0.000118244      1.88404      37.2348 
0.000600720      4.72559      15.2126 
-0.000162264      2.91596      72.4350 
-0.000973423      5.31992     -146.967 
-0.000159576      2.50456     -161.854 
0.000162018      4.76403     -156.233 
-4.88911e-05      6.81252      143.837 
8.80832e-05      3.15734      54.7999 
4.85201e-05      5.23316      117.544 
-0.000226086      6.28805      62.9460 
0.000694967      6.04003      127.060 
-0.000702997      2.03961      101.310 
-0.000217172      6.81692      144.071 
-0.000161292      4.18937     -114.240 
0.000210038      5.15694      73.3220 
-0.000265512      6.64897      136.463 
0.000792267      5.89196      77.8509 
0.000127915      3.04026      90.7538 
2.33313e-05      5.20619      117.451 
-0.000150394      6.79638      143.737 
-0.000149156      5.09843      50.2520 
0.000168564      5.21544      117.646 
0.000141563      2.38411     -130.236 
0.000165016      6.35412      125.391 
2.26975e-05      3.47454     -113.762 
-0.000233816      4.09238     -142.346 
0.000228289      1.38579      159.734 
0.000665144      5.16271      73.1094 
0.000277061      5.31507      168.056 
-0.000126610      1.76477      141.442 
-2.23190e-05      2.01137      48.2245 
-0.000219417      1.49050     -11.6115 
-8.16284e-05      1.74734      5.25380 
0.000257899     0.809938     -32.9052 
-8.58209e-05      4.38361      62.2658 
-0.000741518      5.98732     -40.3937 
2.14408e-05      4.96790      86.7690 
2.12647e-05      3.44401      14.1169 
0.000263632      4.96681      86.9993 
-0.000129704      4.66082     -174.583 
0.000169057      4.78234     -156.329 
-4.13572e-05      2.52357     -161.996 
-0.000488364      4.33820      62.8443 
-0.000666091      2.04088      24.3045 
-0.00130097      6.29717      62.7839 
-2.03069e-05      3.18025      119.790 
0.000379327      5.29551      168.011 
-0.000190324      6.63449      136.344 
-7.92191e-05      2.49840     -162.290 
0.000152151      3.18522      54.7133 
-1.99992e-05      6.42800     -149.525 
-0.000308434      4.10824     -142.516 
0.000898009      5.50218     -133.969 
-0.000144089      6.41077     -149.435 
1.95830e-05      3.49954      20.4027 
-0.000305173      5.55442      85.8703 
-0.000180046      1.78045      141.843 
-1.93367e-05      1.13701      140.711 
-0.000243630      2.51746     -162.429 
-0.000125727      5.05751      50.4555 
-0.000196370      6.02252      138.635 
-0.000137730      1.87040     -114.647 
0.000214967      5.59464     -167.405 
0.000107681      5.45619      94.4148 
-1.87730e-05      3.17036      119.476 
0.000143281      1.39786      160.787 
-1.87436e-05      4.23249     -114.870 
-0.000241541      1.87883     -115.201 
-5.48713e-05      3.08804      36.5730 
3.56434e-05      4.02045     -52.2750 
-0.000257564      7.08308      49.9251 
-0.000104018      7.03295      139.151 
0.000281782      6.35890      125.140 
-8.62323e-05      4.47571      114.274 
7.01260e-05      5.19954      72.5408 
0.000401663      3.93777     -114.613 
0.000101273      1.89842     -163.474 
-0.000326569      6.30635     -152.622 
0.000203136      5.26061      167.707 
-6.74947e-05      4.83011     -170.226 
0.000135806      6.06590     -141.694 
1.73837e-05      3.59961      107.126 
-0.000131492      3.30551     -21.2864 
-6.75675e-05      3.07278     -95.2282 
0.000606118      5.20557      72.3308 
-3.38700e-05      1.49466     -12.3625 
-0.000176462      5.04480      50.6307 
0.000948430      5.88778      78.0412 
-0.000195254      2.04362      101.860 
-0.00195060      6.77882     -145.700 
0.00127109      3.94614     -114.877 
0.000113278      6.48460      116.565 
-0.00144440      5.24202     -146.674 
-0.000185395      4.16941      130.721 
-0.00136456      5.25875     -146.793 
-0.000136849      5.57781      137.616 
0.000179984      4.72038      14.9783 
-4.87887e-05      1.79622      142.237 
0.000132669      5.61416     -167.449 
3.28171e-05      3.59377      106.821 
0.000524301      6.05022     -141.577 
-7.97131e-05      4.19762     -114.489 
1.65215e-05      2.41230     -130.292 
-0.000155999      7.01783      139.044 
9.54447e-05      4.96580      87.2298 
-0.000207827      4.46753      114.041 
-3.27520e-05      1.02000     -118.072 
-1.62869e-05      3.74080      65.3532 
-0.000346169      3.04795     -94.1392 
-3.22387e-05      4.02040      140.450 
-0.000448116      5.55590      85.6646 
0.000193232      2.42528     -130.653 
-0.000877011      7.06779      49.8208 
-7.73827e-05      4.12412     -142.686 
-6.29620e-05      4.73544      22.3406 
-4.75798e-05      1.06677     -120.411 
-4.52244e-05      4.56653     -147.702 
1.60128e-05      2.15564     -117.041 
-0.000122966      4.73629     -126.241 
0.000227151      5.24107      167.661 
-0.000174252      3.83943     -162.415 
-0.000169626      4.03316      140.231 
4.61734e-05      1.85440     -163.715 
6.16211e-05      3.99129      85.6894 
-0.000678616      6.30635      62.6223 
1.57217e-05      3.58804      106.516 
-4.44172e-05      1.78404      142.745 
-0.000431058      4.01781      140.048 
3.12412e-05      6.23897     -139.160 
-1.55536e-05      1.59424      19.7989 
0.000182115      6.80000     -143.130 
-9.04351e-05     0.684105     -127.875 
0.000323368      6.36380      124.889 
-1.54885e-05      4.18249      130.928 
1.54193e-05      5.47321      93.9812 
0.000178588      6.22386     -139.039 
-0.000189461      2.04783      102.407 
4.51757e-05      6.05211      127.211 
-1.53264e-05      6.00753      138.509 
-3.04448e-05      1.07703     -121.329 
-0.000131387      4.47111     -139.899 
-4.44623e-05      1.80000      143.130 
-3.02497e-05      2.38680      94.3251 
7.16928e-05      4.94684      86.9872 
-7.37996e-05      5.99256      138.382 
2.86895e-05      6.47568      116.407 
-1.50102e-05      4.71695      22.4330 
0.00279852      6.65892      65.5133 
-4.42823e-05      1.12606     -123.408 
-0.000153359      2.53653     -162.565 
0.000101375      4.01442      85.1415 
0.000652133      6.66723      65.3569 
0.000489021      5.21168      72.1213 
0.000272996      6.81601     -143.231 
1.47289e-05      3.58240      106.209 
-1.47013e-05      1.69800      15.0184 
-0.000243819      4.24094     -115.115 
4.31422e-05      1.37899      160.514 
5.64991e-05      3.34431      59.4476 
-0.000126485      6.57078      112.741 
0.000292289      5.88367      78.2317 
-1.46082e-05      5.03214      50.8067 
1.45207e-05      5.47185      93.7723 
0.00114566      5.39637      68.4746 
0.000808146      5.85604      78.5749 
-0.000165060      4.72449     -126.045 
1.44804e-05      5.43651      59.0001 
-0.000216735      4.23249     -12.0002 
-0.000884125      6.57854      112.901 
-4.26674e-05      1.67869      15.1952 
-5.71465e-05      1.18811     -126.098 
0.000753757      6.03457     -141.459 
9.81056e-05      5.22153      167.614 
-0.000366022      6.00030     -40.5392 
0.000167974      6.20877     -138.918 
4.19906e-05      6.06422      127.361 
 0.0316980      6.05944     -42.3246 
-6.96446e-05      5.97762      138.255 
7.03214e-05      5.51609     -134.119 
-8.40843e-05      1.84564      29.8989 
1.41988e-05      1.87926     -163.301 
2.79423e-05      5.06281     -148.570 
-2.79661e-05      1.54984      19.6041 
-0.000226866      1.22801     -127.057 
4.13978e-05      1.86011     -163.124 
2.77743e-05      1.36015      160.233 
2.78087e-05      6.37526      125.036 
-0.000147701      4.41239     -139.596 
1.39006e-05      6.37043      125.287 
0.000229942      6.83204     -143.331 
-6.86442e-05      2.05222      102.953 
-0.000201042      3.68049     -89.0659 
0.000434112      5.57229     -134.418 
0.000267712      6.38201      125.433 
0.000130374      4.01617      84.8572 
-2.75321e-05      5.91151     -41.0218 
-0.000213994      1.82833      30.2113 
-0.000183602      6.84237      144.638 
0.000119322      1.80044     -178.727 
-0.000120999      5.89644     -41.1494 
0.000146608      6.19371     -138.797 
-1.35939e-05      1.65940      15.3763 
-0.000209577      2.03735      103.627 
-2.68879e-05      4.15639      130.512 
0.000104632      5.20200      167.567 
-7.94229e-05      5.96272      138.127 
-0.000285435      6.67904     -146.976 
1.33638e-05      5.07988     -148.688 
-1.33642e-05      3.68022     -89.3772 
-0.000131644      4.22568     -105.089 
1.33402e-05      1.84098     -162.943 
2.63515e-05      2.44049     -130.347 
-5.20432e-05      1.53101      19.8552 
1.32894e-05      6.46671      116.644 
-9.14710e-05      5.88139     -41.2776 
-5.17044e-05      3.71554      170.081 
1.31908e-05      6.07638      127.511 
3.91589e-05      5.28923      172.176 
-0.000190460      3.04946     -94.5140 
-7.56109e-05      4.15870      130.123 
0.000317742      6.84809     -143.431 
1.30673e-05      5.09698     -148.805 
-0.000176320      4.71275     -125.849 
0.000115413      5.04714      161.996 
0.000297679      4.39727     -58.7681 
0.000364968      5.45366      102.711 
-0.000546462      3.72263     -12.0948 
0.000241820      6.39362      125.579 
0.000190480      6.17867     -138.675 
-0.000115338      4.23093     -105.350 
-0.000323570      3.70000     -90.0000 
1.29006e-05      6.08013      127.247 
-6.35206e-05      5.94784      137.998 
-0.000583679      1.85569      30.4342 
-1.28671e-05      2.39641      96.7098 
-2.55094e-05      4.25206     -11.9442 
0.000238611      4.38694     -58.9914 
-7.53868e-05      2.39883      97.1843 
0.00248734      6.55134     -148.736 
7.53926e-05      4.15384      74.3578 
-1.27114e-05      4.42764     -139.764 
-0.000100220      5.03671     -33.5008 
-0.000125090      2.04216      104.172 
1.26430e-05      5.34004      90.2146 
-0.000113079      4.23627     -105.611 
3.74141e-05      5.11410     -148.921 
-0.00290820      6.31557     -152.461 
1.26298e-05      6.09226      127.397 
-0.000932752      7.85723      130.665 
0.000271637      5.60835     -146.933 
0.000295852      5.45809      102.916 
-1.25782e-05      3.73524      170.134 
0.000862623      5.96872      59.8265 
0.000159816      3.70000     -126.870 
3.75726e-05      4.65760     -132.390 
0.000294385      5.01538      161.637 
4.95604e-05      5.34015      90.4292 
0.000149067      6.40528      125.725 
-9.93681e-05      4.24170     -105.871 
0.000307000      6.16367     -138.552 
-7.35746e-05      2.40142      97.6577 
0.00188275      6.86417     -143.531 
-3.70502e-05      3.02424     -93.0327 
-0.000244844      3.74219     -12.0306 
2.47439e-05      4.64414     -132.207 
0.000110187      6.29365      44.3563 
7.37372e-05      4.15928      74.0924 
-0.000159286      5.05340     -33.3756 
3.69875e-05      1.78370     -162.378 
0.000552326      6.01894     -141.340 
2.46307e-05      4.92796      86.7428 
2.46119e-05      6.11663      127.694 
-0.000110206      2.04714      104.715 
3.68175e-05      3.71203     -127.117 
-0.000134976      4.24721     -106.131 
0.000208029      6.41698      125.870 
-0.000293053      6.01332     -40.6840 
1.23009e-05      3.94000     -98.1712 
0.000655857      6.88616      48.5323 
1.22739e-05      3.94289     -98.4589 
-1.22944e-05      3.75494      170.186 
2.45302e-05      3.94588     -98.7462 
-0.000195190      7.04991      51.7971 
0.000109862      5.36000      90.0000 
-0.00588619      6.35185      62.2247 
-6.10687e-05      3.05110     -94.8884 
0.000244590      7.17420      57.6391 
0.000476654      4.61042      8.48161 
2.44716e-05      3.94897     -99.0330 
-0.000280501      5.53408      71.2377 
-0.000474953      4.25281     -106.390 
4.87849e-05      5.62512     -147.044 
4.88844e-05      3.98557     -100.408 
2.43861e-05      4.92914      86.5107 
1.22080e-05      6.12888      127.842 
-1.22071e-05      4.70106     -125.651 
1.22039e-05      1.76465     -162.181 
-0.000183165      5.44059      109.767 
0.000194917      3.98924     -100.690 
1.21849e-05      5.34973     -144.587 
-8.52440e-05      3.05287     -95.2624 
0.000329431      5.38906      68.6724 
6.08667e-05      3.59611     -74.1859 
-0.000834756      5.19954      97.0703 
0.000231630      6.14869     -138.428 
-3.65430e-05      2.40416      98.1301 
-0.000121907      5.26673      82.3622 
-8.52686e-05      2.05232      105.255 
1.21629e-05      5.55831     -134.271 
1.21685e-05      1.78986     -161.768 
0.00720665      5.86409     -162.739 
4.86742e-05      6.42872      126.014 
-3.65332e-05      4.16120      129.735 
1.21683e-05      4.16481      73.8278 
-0.000807792      5.57918      70.5258 
-0.000910430      4.25850     -106.648 
1.21782e-05      5.36604     -144.711 
0.000109676      4.40768     -58.5458 
0.000210927      4.28378      69.7884 
-0.000503002      7.03756      51.9251 
0.000109924      3.92948     -114.347 
-0.00202130      6.68996     -146.833 
0.000146422      6.07569     -138.069 
7.31545e-05      6.44810      126.550 
-4.87473e-05      3.05477     -95.6359 
0.000641131      6.25108      44.4815 
-7.33267e-05      5.07011     -33.2513 
0.000306721      3.99299     -100.972 
-8.54998e-05      5.55745      85.4590 
0.000172877      4.89036      171.770 
-0.000170982      6.76231     -145.605 
0.000221129      3.59071     -74.4930 
-0.000109932      5.36302     -46.9645 
-0.00134470      4.26427     -106.905 
2.43930e-05      5.59160     -146.821 
0.000672310      4.99640      161.565 
4.89317e-05      4.93040      86.2787 
-4.89656e-05      4.17402      129.946 
-1.22008e-05      3.78227     -162.140 
-1.22114e-05      2.40707      98.6014 
-8.60115e-05      5.26942      82.1467 
0.000110290      6.46003      126.693 
9.79458e-05      4.41814     -58.3245 
-9.80565e-05      2.05767      105.792 
-4.89568e-05      3.05680     -96.0090 
-0.000122432      7.84421      130.554 
-0.000339353      4.27013     -107.162 
-0.00209198      6.02638     -40.8282 
-0.000147943      3.70005     -90.3097 
1.22133e-05      5.57487     -146.709 
0.000595481      6.06082     -137.943 
-8.83712e-05      4.27607     -107.418 
-3.68650e-05      3.76324     -162.047 
1.22416e-05      4.87056      171.737 
1.22530e-05      5.55817     -146.596 
6.16389e-05      3.64818     -126.304 
-0.000344385      5.27549     -146.912 
-1.22534e-05      4.28210     -107.673 
-0.00118027      6.73451     -145.649 
-0.000508525      7.83352      130.236 
-0.00170962      5.33700     -47.5819 
0.000173672      5.38182      68.8708 
-2.45599e-05      4.30706     -108.687 
-4.93249e-05      3.05895     -96.3816 
-6.15259e-05      4.31351     -108.939 
-6.16779e-05      4.32005     -109.190 
0.000111445      6.59203      116.876 
-9.88665e-05      7.05890      120.852 
0.000452260      4.60752      8.23562 
7.43541e-05      4.42868     -58.1043 
4.95293e-05      4.93173      86.0468 
-0.000112378      5.08685     -33.1277 
-1.23367e-05      2.06320      106.327 
-0.000233232      5.29774      81.5334 
0.000162922      6.47200      126.834 
2.47287e-05      5.97880      59.6608 
1.23656e-05      5.50818     -146.252 
-0.000485500      5.76250      58.6270 
-0.00192510      5.58588      70.3324 
-1.23788e-05      2.39708      100.091 
-6.20043e-05      4.32666     -109.440 
-4.98296e-05      3.71903     -162.150 
-8.74190e-05      2.06184      108.083 
-4.99061e-05      3.87412     -151.980 
-7.53213e-05      3.06124     -96.7536 
-0.000227445      7.06917      120.992 
-6.23137e-05      4.33336     -109.689 
-0.000102337      2.40067      100.561 
1.24479e-05      5.87006     -162.553 
-0.000849754      7.06564      51.8974 
0.000604105      4.02443     -101.757 
0.000114070      6.35261      113.175 
0.000286281      6.20197      55.6437 
5.04031e-05      3.58541     -74.8009 
-7.61829e-05      3.70308     -12.1596 
8.87017e-05      6.60109      117.031 
-3.77613e-05      4.34014     -109.938 
5.05362e-05      4.43928     -57.8852 
-8.87346e-05      4.95035     -40.5762 
-2.51684e-05      3.85648     -151.840 
-0.00146853      7.82061      130.125 
5.05744e-05      6.13374     -138.304 
-6.37069e-05      3.70000     -162.055 
-9.09462e-05      3.70022     -90.6194 
-7.63614e-05      2.06814      108.610 
1.26375e-05      3.63637     -126.051 
-2.52751e-05      3.82941     -151.963 
3.81735e-05      5.37464      69.0696 
0.000190283      6.00333     -141.221 
-6.36069e-05      4.34700     -110.186 
-0.000459899      5.00372     -24.3113 
6.45046e-05      5.32094      69.9985 
0.000181812      4.76844      46.8695 
8.91625e-05      6.04599     -137.816 
-0.000246653      3.81177     -151.821 
0.000344592      6.48401      126.976 
5.17445e-05      3.59450     -75.4998 
-0.000606986      7.05331      52.0253 
1.27691e-05      5.26217      71.1519 
-2.55595e-05      3.06366     -97.1250 
0.000920088      6.11882     -138.180 
7.77857e-05      4.44994     -57.6671 
-0.000143412      1.87297      30.1243 
-0.000156663      4.93518     -40.7272 
0.000262553      6.19070      55.7965 
-7.74901e-05      4.35394     -110.433 
-0.000129937      5.19711      96.8515 
-0.000184083      2.06930      110.362 
-2.58452e-05      5.10361     -33.0050 
0.000221844      5.02287      46.7748 
-0.00180367      7.09366      121.629 
0.000171093      6.61020      117.185 
0.000143639      4.60469      7.98933 
6.52409e-05      5.54696     -167.718 
0.000784894      6.34476      113.009 
-6.54484e-05      4.36096     -110.679 
 0.0129316      5.65236     -36.2211 
0.000269645      6.11967      77.7352 
2.64705e-05      4.45466     -57.0948 
1.31559e-05      4.89326      171.539 
0.000107856      6.87293      48.6572 
-0.0150549      6.03138     -158.199 
2.64459e-05      4.75479      47.0454 
0.00260801      4.60196      7.74274 
0.00133531      6.65065      65.6701 
0.00113285      5.70701     -168.887 
-0.000108198      2.40441      101.030 
-5.36762e-05      4.36807     -110.925 
0.000686546      5.00919      46.9415 
-0.000567321      3.79415     -151.679 
0.000724765      4.46126     -138.089 
-0.000123998      3.70049     -90.9290 
0.000702594      5.45619      101.845 
0.00140353      5.01059      25.0307 
-6.87918e-05      4.92004     -40.8792 
0.000197432      5.92881      77.1358 
0.000752940      4.94016      47.4611 
0.000124103      5.94871      60.1595 
0.000342367      5.46033      102.051 
5.71045e-05      4.46556     -56.8793 
-8.19515e-05      5.84657      163.301 
-4.18484e-05      6.96103      54.1179 
-5.48954e-05      2.07634      110.879 
0.000404821      5.00911      161.854 
4.14938e-05      5.85850      116.565 
1.37196e-05      4.97743      161.492 
-0.00104255      6.59421      113.221 
-1.38231e-05      2.07239      112.109 
-0.000444470      5.85235      163.113 
0.00120725      6.08763      78.2471 
0.000129747      6.85974      48.7826 
-0.000352763      2.08000      112.620 
1.39966e-05      6.08358      78.4315 
-2.83805e-05      4.37525     -111.169 
-5.68448e-05      2.39708      102.529 
0.00148806      6.10393     -138.055 
0.000145100      5.93879      60.3269 
0.000165285      5.86747      116.740 
-5.81436e-05      4.90494     -41.0321 
-0.000252915      5.69386      59.3814 
7.31404e-05      6.49606      127.117 
-8.70851e-05      3.70086     -91.2386 
-0.000469639      7.80774      130.012 
-0.00197075      6.75103     -145.745 
0.00294557      5.03718      25.1406 
0.000178540      6.52386     -148.795 
-8.98634e-05      2.40150      102.995 
-1.45630e-05      4.16740     -76.9642 
-9.19346e-05      5.22433      104.409 
-1.46881e-05      4.38251     -111.413 
-0.000206631      6.97278      53.9847 
-1.48849e-05      4.17382     -77.8285 
-0.000138292      3.72263     -92.1553 
-7.55156e-05      4.31935     -111.457 
0.00142436      5.92891      60.4948 
-6.14859e-05      4.88987     -41.1859 
1.50249e-05      6.21328      55.4915 
-0.000121080      7.79746      129.693 
0.000415785      6.56049      52.4314 
-0.000122967      5.83016      55.7648 
0.000939112      5.26946     -152.171 
-0.00583523      7.78470      129.579 
0.000334661      6.50677     -148.704 
0.000778842      4.02040     -101.478 
0.000534396      4.99011      161.783 
-0.000309697      4.32671     -111.703 
0.000302699      5.25178     -152.069 
-0.000419405      7.07799      51.7700 
-3.10009e-05      6.01126     -40.9528 
0.000272672      4.59930      7.49586 
-0.000399104      5.99430     -41.3478 
0.00904236      6.64244      65.8273 
0.000145681      4.01721     -107.082 
0.000382402      5.24187     -129.582 
-3.16266e-05      2.57721      12.0948 
-0.00274342      5.63645     -173.480 
-0.00215499      5.78000      56.1450 
1.57390e-05      6.89655      122.446 
0.000670391      6.88026     -143.630 
-0.00260032      5.59264      70.1394 
-0.000150338      5.84219      88.4306 
0.000131294      5.69775      116.025 
-6.67175e-05      3.72344     -92.4628 
-0.000193783      2.55766      12.1886 
-0.000318916      5.21939      104.196 
-8.40151e-05      4.87483     -41.3407 
0.00155958      5.23412     -151.966 
-0.00280658      5.97930     -41.4744 
5.06399e-05      6.59193      116.487 
-0.00593992      6.51061      58.3118 
5.25036e-05      4.02313     -107.354 
0.000632483      5.68901      115.844 
0.000352659      6.48968     -148.612 
0.00136480      6.13270     -155.943 
-0.00128048      5.32353     -47.7408 
-0.000440778      7.09039      51.6431 
-0.000143347      5.85819      162.926 
0.000274305      6.57270      52.2932 
-7.11500e-05      6.98455      53.8520 
-0.00363926      7.10417      121.766 
-0.000251035      6.98627      134.768 
0.00206351      6.08907     -137.929 
3.53137e-05      4.99556      47.1091 
-0.000136519      3.70195     -91.8576 
-0.000111423      5.84277      88.2346 
9.08851e-05      5.71090     -168.690 
-7.42976e-05      4.85984     -41.4965 
0.000523504      5.22915     -129.413 
0.000962427      6.12395      77.5524 
0.000187623      5.26118     -44.3839 
-0.000225851      4.33414     -111.949 
-1.84237e-05      2.39633      104.500 
3.70298e-05      5.02195      162.142 
-0.000153973      7.02433      53.6848 
-0.00109792      6.76757     -145.840 
-0.000326357      7.10282      51.5166 
7.57730e-05      5.62100     -168.090 
-0.000377833      5.29226     -147.031 
0.00310207      5.00292      162.072 
-0.000175786      5.86409      162.739 
-0.00134622      6.58635      113.062 
0.000275800      6.47262     -148.520 
0.000259148      6.59175      66.3905 
-0.000475224      5.21452      103.983 
-5.79946e-05      5.27181     -48.6914 
-0.000307953      5.77235     -165.964 
0.000241098      5.64057     -168.132 
-0.000716285      6.02399     -158.375 
0.000928940      5.24690     -44.5367 
0.000101282      6.09275      82.4551 
-6.02339e-05      4.84487     -41.6532 
6.03700e-05      6.58495      52.1555 
0.000454387      6.71193      146.547 
-0.000102006      7.03619      53.5535 
0.00825971      6.12457     -156.114 
-0.000334915      7.11528      51.3905 
-0.00118461      4.82808      158.110 
0.000619738      5.68032      115.663 
-0.00110252      5.75976     -38.9395 
0.000215593      5.41406      124.160 
-0.000133657      7.00037      135.116 
0.00136755      6.09541      82.2687 
-0.000450386      7.12778      51.2649 
0.000188098      6.89638     -143.728 
-2.22518e-05      4.82995     -41.8109 
4.49658e-05      8.06208      131.480 
0.000380114      5.42531      124.334 
-0.00486685      5.96433     -41.6016 
0.000873166      6.12830      77.3698 
0.000117297      5.17571     -129.040 
-0.000140359      5.77723     -165.771 
-4.63907e-05      3.70265     -92.1669 
-0.000388640      7.01456      135.231 
-0.000119324      5.22349      116.369 
0.000174059      8.08705      131.892 
-0.000689575      7.14031      51.1397 
-0.000465953      5.20999      104.676 
-2.36998e-05      2.40142      104.962 
0.000262587      6.33697      112.842 
-0.00234788      6.34255      62.3845 
-0.000165583      5.79327      83.8564 
 0.0134651      5.85819     -162.926 
-0.00303669      5.77533     -38.8147 
-0.00105742      2.39842      106.470 
-0.000746210      5.78218     -165.579 
-0.00185677      5.22352      116.859 
0.000262008      5.01908      25.2376 
0.00101802      5.45212      101.640 
0.000430122      5.43662      124.509 
-0.00255382      6.32484     -152.301 
-0.000927204      7.15287      51.0149 
-0.000495574      5.74543      95.3931 
0.000737758      5.67168      115.481 
0.000883879      5.96607      60.2551 
0.00271523      5.29649     -152.080 
0.000260555      3.55308     -132.491 
-2.61702e-05      4.34166     -112.194 
0.000471976      5.23267     -44.6903 
-0.00286680      4.80953      158.022 
-0.000272097      2.06737      65.4184 
-0.000168220      5.71318     -150.653 
-0.000145111      4.75298     -40.3921 
0.00204287      6.13270      77.1875 
0.00151253      6.72298      146.404 
-0.000593449      7.18100      50.9913 
-0.000514281      5.20496      104.463 
-0.00490198      5.80978     -38.2902 
0.000146116      5.44797      124.682 
-0.00161349      5.73062     -150.751 
-0.00338386      5.74359      95.1944 
0.00339294      4.98389      162.001 
-0.000624748      5.79117      55.9807 
0.00108470      5.45447      125.147 
-0.000281063      7.13936      56.8887 
-0.000121984      7.16547      50.8906 
0.000202619      6.32487      112.104 
-0.00142414      5.69575      169.479 
-0.000785432      5.61658     -173.457 
-0.00157103      7.19361      50.8675 
-6.23229e-05      3.49543     -47.0868 
-0.000207614      4.76823     -40.2364 
0.000438225      5.14968     -133.426 
-0.000542448      6.38577      147.405 
-0.000222144      5.63205      69.6345 
-0.000374587      3.48184     -47.3278 
0.000132976      4.33336     -70.3106 
-0.00418452      6.33331      62.5448 
-0.00628441      5.94939     -41.7295 
0.000139030      3.53836     -132.709 
-0.00114494      5.78719     -165.387 
0.000654416      4.32666     -70.5600 
-0.000957288      5.59671     -173.434 
0.000107554      5.98815      95.5583 
-0.000193529      2.05913      65.9245 
0.00142928      5.02872      24.9343 
7.23761e-05      2.12941      5.38931 
-0.00502537      7.20625      50.7442 
-7.42117e-05      5.59946      69.9470 
-0.00224015      4.87229      167.675 
-0.000790546      3.48511     -144.577 
-0.00146050      5.80238      55.8170 
0.000279261      3.73877     -138.036 
0.000280008      5.98625      95.3677 
7.87093e-05      5.23290     -44.3806 
0.00159502      5.46600      125.318 
-0.00171452      5.57684     -173.410 
-0.000260734      6.36892      147.308 
-0.00107784      3.09613     -52.6119 
0.000533448      5.44812      101.434 
-0.000262954      6.73979     -145.886 
0.000226713      5.01813      152.720 
0.000432385      2.62069     -26.7606 
8.56100e-05      3.74769      176.328 
-0.00132035      4.79099      157.932 
-0.000703945      5.44243      159.567 
0.000221048      5.31417     -152.181 
0.000517156      5.54231     -178.346 
-0.000618894      5.79092     -38.6907 
0.000329622      5.98441      95.1771 
0.000439567      2.60284     -26.9588 
4.60178e-05      5.21862     -44.5342 
0.000293466      3.70912      175.980 
0.000390996      6.77422      58.8912 
-0.00132976      5.55698     -173.387 
-0.00192238      5.93448     -41.8580 
0.000541689      5.66872     -171.069 
-0.000246839      3.46883     -144.386 
-0.000198191      5.88003      123.204 
-0.000201496      4.56215      1.75853 
0.000100132      5.95617      60.4222 
-0.000256254      6.32411      62.7056 
5.10505e-05      4.99187      152.306 
-5.17153e-05      6.63617      127.284 
