! Center RA: 10 58 29.60521,  Dec: +01 33 58.82359 (2000.0)
! Established model.
! Flux (Jy) Radius (mas)  Theta (deg)  Major (mas)  Axial ratio   Phi (deg) T \
! Freq (Hz)     SpecIndex
 0.0862788    0.0781025      140.194 
 0.0698757    0.0707107      135.000 
 0.0250293    0.0640312      128.660 
0.00710182    0.0583095      120.964 
 0.0102825    0.0538517      111.801 
 0.0403291   0.00999997      180.000 
 0.0604351    0.0223606      153.435 
 0.0379033    0.0360555      146.310 
 0.0500621    0.0282842      135.000 
0.00697031    0.0424264      135.000 
 0.0449430    0.0360555      123.690 
 0.0445212    0.0316228      108.435 
 0.0370280    0.0300000      90.0000 
0.00591035    0.0447213      116.565 
 0.0314248    0.0500000      126.870 
 0.0120339    0.0565685      135.000 
0.00806129    0.0640312      141.340 
0.00407942    0.0721110      146.310 
0.00221915    0.0806225      150.255 
0.00177971    0.0894426      153.435 
0.000956211    0.0984886      156.038 
 0.0142225     0.107703      158.199 
0.00344413      1.85648     -62.0546 
0.000942491      1.87000     -61.9275 
0.00109817      2.21371     -63.4349 
0.00104605      2.20477     -63.3187 
0.000613270      1.85181     -62.3279 
0.00118015      2.21820     -63.2039 
0.00465967      1.67200     -53.2672 
0.000394563      1.83831     -62.4592 
0.000192418      1.82483     -62.5924 
0.00250133      2.20928     -63.0870 
0.000189699      1.80679     -63.0095 
0.000553701      1.79335     -63.1492 
0.000179569      1.87417     -62.3411 
0.000177477      1.77992     -63.2910 
0.000514807      1.77544     -63.5793 
0.000172790      1.89652     -62.3540 
0.000166631      1.91426     -62.6318 
0.00230669      2.22272     -62.9738 
0.000799808      1.76204     -63.7258 
0.000162867      1.92315     -62.7687 
0.00254828      1.97730     -64.8606 
0.000739562      1.75764     -64.0181 
0.000298271      1.96352     -64.3485 
0.00314359      1.67800     -52.9935 
0.00119619      1.74428     -64.1695 
0.000554560      2.23164     -63.0905 
0.000137668      1.96825     -64.7369 
0.000509991      2.23618     -62.8620 
0.000133359      2.24056     -63.2062 
0.000258608      2.24508     -62.9784 
0.000129202      2.24949     -63.3210 
0.000126567      2.25843     -63.4349 
0.000249096      2.27192     -63.8861 
0.00115256      1.73994     -64.4659 
0.000121508      2.28090     -63.9967 
0.000236294      2.28554     -64.3319 
0.000117992      2.22729     -62.7447 
0.000228753      2.21840     -62.6264 
0.000450989      2.29456     -64.4400 
0.000429437      1.98215     -65.2450 
0.000432507      1.97307     -65.1235 
0.000219934      2.20952     -62.5072 
0.000215730      2.29930     -64.7724 
0.000210961      2.21416     -62.2776 
0.000996607      1.73566     -64.7637 
0.000312400      2.30358     -64.5473 
0.000203086      2.20066     -62.3870 
0.000491823      2.30835     -64.8781 
0.000385134      1.97798     -65.5081 
0.00192263      1.67003     -52.7870 
0.000478425      2.20531     -62.1568 
0.000192065      1.96888     -65.3875 
0.000187597      2.31262     -64.6538 
0.000865149      1.73142     -65.0631 
0.000271492      2.31741     -64.9831 
0.000180698      2.19180     -62.2658 
0.000438248      1.96474     -65.6526 
0.000674033      2.32166     -64.7595 
0.000968286      2.19647     -62.0349 
0.000325268      1.96064     -65.9188 
0.000388447      1.72722     -65.3639 
0.000461409      2.33071     -64.8643 
0.000304943      1.95658     -66.1862 
0.00133394      1.67610     -52.5148 
0.000432484      1.73220     -65.8024 
0.000216986      2.18296     -62.1437 
0.000495506      2.33497     -64.6422 
0.000285080      1.95256     -66.4546 
0.00157890      2.18765     -61.9121 
0.000461343      1.72812     -66.1048 
0.000201641      1.94859     -66.7242 
0.000363788      2.34401     -64.7468 
0.000191785      1.94466     -66.9948 
0.000436217      2.34830     -64.5262 
0.000303298      1.72409     -66.4087 
0.000242205      1.94077     -67.2666 
0.000407609      2.43824     -61.8584 
0.000865046      1.68220     -52.2445 
0.000172716      1.93693     -67.5394 
0.000282011      1.72540     -67.1502 
0.000111078      1.94618     -67.6519 
0.000617893      2.44706     -61.9688 
5.43465e-05      1.93313     -67.8133 
5.40098e-05      1.72699     -67.8906 
0.000685724      1.73104     -69.3665 
0.000157515      1.94240     -67.9247 
5.12752e-05      2.34883     -65.0715 
0.000149809      1.93866     -68.1986 
0.000189072      2.34463     -65.2931 
4.95422e-05      1.72154     -67.4569 
0.000777657      1.68834     -51.9762 
0.000142894      1.93497     -68.4735 
0.00122799      2.19237     -61.6815 
0.000997770      2.45589     -62.0785 
9.14827e-05      1.93132     -68.7495 
0.000249403      1.86271     -70.8841 
0.00126061      1.72169     -69.2492 
0.000207380      2.34047     -65.5155 
4.35440e-05      1.94427     -68.5817 
0.000165067      1.94064     -68.8565 
0.000549833      1.69452     -51.7098 
0.000150856      1.94997     -68.9625 
0.000487190      2.17883     -61.7883 
3.81467e-05      2.33634     -65.7387 
0.000207314      2.34139     -66.0624 
0.000307295      1.87216     -70.9844 
3.64786e-05      1.70857     -51.6544 
0.000630031      1.71479     -51.3924 
3.48776e-05      1.94641     -69.2372 
3.39557e-05      1.95931     -69.0675 
0.000159806      1.95576     -69.3411 
0.00129455      2.46473     -62.1873 
9.14609e-05      2.33735     -66.2864 
0.000699226      1.88162     -71.0836 
0.000548924      1.72105     -51.1322 
2.97465e-05      1.95226     -69.6157 
0.00154408      1.71234     -69.1307 
8.48662e-05      1.96512     -69.4440 
0.000162351      2.34252     -66.6087 
0.000137049      2.19713     -61.4520 
0.000103511      1.96163     -69.7174 
0.000506186      2.18358     -61.5571 
2.56936e-05      2.42942     -61.7472 
0.000531668      1.72734     -50.8740 
7.21784e-05      2.34776     -66.9296 
0.000116450      1.97101     -69.8182 
9.18297e-05      2.42062     -61.6351 
0.000108770      2.34386     -67.1545 
0.000103221      1.96759     -70.0915 
0.000135956      2.41183     -61.5223 
0.000150857      2.34923     -67.4739 
0.000549496      1.73367     -50.6176 
0.000752857      1.97041     -54.2933 
0.000146056      2.18836     -61.3269 
5.70079e-05      1.97699     -70.1902 
0.000137344      1.97363     -70.4633 
0.000238922      2.35468     -67.7919 
7.97264e-05      2.20676     -60.9958 
4.68706e-05      1.98305     -70.5600 
0.000205228      1.97975     -70.8329 
9.60675e-05      2.19317     -61.0976 
1.38924e-05      1.55596     -56.0035 
7.87078e-05      1.55039     -56.3099 
3.94727e-05      2.21163     -60.7693 
0.000137272      2.35091     -68.0176 
0.000115469      1.74003     -50.3631 
4.86774e-05      1.54486     -56.6185 
7.89361e-05      2.27247     -59.5984 
5.97014e-05      1.97649     -71.1067 
0.000211360      1.96229     -54.1229 
2.32611e-05      1.53938     -56.9293 
0.000119464      1.98595     -71.2001 
8.66000e-05      1.53395     -57.2423 
1.07881e-05      2.19802     -60.8694 
2.07417e-05      1.74643     -50.1104 
4.67931e-05     0.260000     -22.6199 
0.00244909      2.04963     -70.3274 
0.00329218      2.04629     -70.5910 
0.00166719      2.05302     -70.0646 
0.000677201      2.05645     -69.8027 
   1.19559    0.0282843     -45.0000 
  0.180443    0.0223607     -63.4348 
  0.166415    0.0141422     -45.0000 
0.00432208     0.134536     -41.9872 
 0.0362471     0.148661     -42.2737 
 0.0286651     0.162788     -42.5105 
 0.0579450    0.0100001      0.00000 
 0.0164751     0.155564     -45.0000 
 0.0154874     0.169706     -45.0000 
 0.0387910     0.162788     -47.4895 
 0.0752624    0.0141422      44.9997 
 0.0241935     0.170294     -49.7636 
 0.0364915     0.164012     -52.4314 
  0.193182    0.0223607      63.4347 
0.00378128     0.172047     -54.4623 
 0.0553465     0.166433     -57.2648 
0.00593679     0.161245     -60.2551 
 0.0155086     0.170000     -61.9275 
 0.0536878     0.165529     -64.9831 
 0.0286999     0.170880     -69.4440 
0.00188007     0.214709     -27.7585 
0.00784422     0.167631     -72.6460 
0.00407687     0.228473     -23.1986 
0.00507020     0.174643     -76.7595 
0.00931814     0.237697     -22.2490 
 0.0163029     0.172627     -79.9920 
0.00375763     0.294279     -99.7824 
0.000967451     0.292746     -97.8533 
0.00876028     0.445982     -47.7263 
0.00513537     0.452769     -46.7899 
0.000358893     0.446878     -49.5378 
0.00339606     0.501199     -61.3895 
0.00149689     0.510000     -61.9275 
0.000684083     0.466905     -43.2643 
0.000174725     0.653070     -25.3879 
0.000229131     0.662118     -25.0169 
0.000183162     0.671193     -24.6559 
0.000926527     0.161555     -68.1986 
0.00998819      1.25686     -15.6949 
0.00257166      1.24040     -16.3895 
0.000333741      1.23762     -15.9454 
0.00145381     0.290172     -91.9749 
0.00160558     0.540370     -87.8789 
0.000732247     0.530377     -87.8389 
0.00172796      2.51269     -76.1850 
0.000102583     0.540093     -88.9391 
0.000933492      1.24908     -75.6300 
0.00101066     0.311448     -84.4725 
9.45386e-05      1.26127     -75.3027 
0.00107216      1.26384     -74.8642 
0.000271517      2.73470     -51.8310 
0.000550447      2.51509     -75.9638 
0.000341781      2.72853     -51.9961 
0.000223093     0.301496     -84.2894 
0.000143203      2.73029     -52.2907 
0.00115292     0.530848     -86.7603 
0.00188197     0.300666     -86.1859 
0.000173144      2.51754     -75.7430 
0.000169493      2.72419     -52.4571 
6.71579e-05      2.57422     -72.1281 
3.29147e-05      2.57730     -71.9166 
0.000156857      2.71811     -52.6242 
9.61159e-05      2.58043     -71.7055 
3.13562e-05      2.71205     -52.7921 
6.20918e-05      2.58358     -71.4949 
3.10239e-05      2.71400     -53.0879 
0.000454022      1.26649     -74.4275 
6.10951e-05      2.70801     -53.2570 
9.05894e-05      2.51032     -76.4066 
6.04741e-05      2.58677     -71.2849 
5.98125e-05      2.69236     -54.0665 
0.000116914      2.59000     -71.0754 
2.94870e-05      2.68650     -54.2392 
0.000170468      2.50799     -76.6287 
2.92093e-05      2.68302     -54.7106 
8.59989e-05      2.67726     -54.8853 
0.000111641      2.59326     -70.8664 
5.57595e-05      2.67152     -55.0607 
8.14235e-05      2.66580     -55.2369 
0.000655062      2.50569     -76.8511 
0.000158690      2.59656     -70.6579 
5.23405e-05      2.72239     -52.1619 
7.84553e-05      2.66011     -55.4138 
5.13189e-05      2.82002     -52.9269 
0.000841370      1.28445     -73.2580 
2.54773e-05      2.65445     -55.5915 
0.000173115      2.59988     -70.4499 
0.000865723      2.50344     -77.0740 
7.47404e-05      2.65708     -55.8913 
0.000160928      2.65149     -56.0702 
0.000177288      2.83403     -52.8875 
2.40469e-05      1.23223     -76.8660 
0.000205299      2.60325     -70.2425 
0.000198767      1.21598     -78.1356 
0.000218521      2.50122     -77.2973 
0.000294679      2.64592     -56.2499 
0.000386990      1.28736     -72.8318 
4.37038e-05      2.72685     -51.7012 
0.000800521     0.290689     -86.0548 
0.000127135      2.60665     -70.0357 
6.30100e-05     0.521536     -85.6013 
4.09299e-05      2.84007     -52.7266 
6.07984e-05      2.64038     -56.4303 
2.08563e-05      2.73306     -51.5366 
3.48135e-05     0.476760     -80.3401 
0.000199914     0.485077     -81.7028 
0.000155491     0.494975     -81.8699 
0.000250983     0.503587     -83.1572 
0.000141529      2.76116     -51.4698 
5.36075e-05      2.82418     -52.4809 
0.000324454     0.512445     -84.4007 
7.85740e-05      2.75494     -51.6325 
0.000124525      2.83212     -52.6041 
0.000667413     0.280713     -85.9144 
4.89134e-05      2.74875     -51.7959 
0.000116618      2.60271     -70.9385 
2.37080e-05      2.74089     -51.6667 
2.36314e-05      1.21807     -77.6753 
6.89905e-05      2.82606     -52.7652 
8.90694e-05     0.522398     -84.5077 
0.000110396      2.60599     -70.7307 
0.000165225      2.60931     -70.5234 
0.000183043     0.513517     -83.2902 
4.22141e-05      1.30292     -72.1213 
0.000119796      1.30602     -71.7038 
5.96274e-05      1.20221     -78.9705 
7.77307e-05      2.61266     -70.3167 
1.91333e-05     0.504876     -82.0304 
-0.00192867     0.549181      146.889 
-0.000474044     0.184391      130.601 
-0.000563306      1.59214     -26.0822 
0.00225928     0.852878      4.70785 
0.00257832     0.559732     -161.241 
-0.000431711      4.55027    -0.629599 
-0.00131819     0.191050      132.879 
-0.000745027      1.58316     -26.2414 
0.00140033      2.31035     -179.008 
0.00265370      4.87052     -3.76712 
-0.00108811      6.81859     -38.4498 
-0.000946882      4.48786     -5.11352 
-0.000676586      1.56732     -12.5288 
0.000754704      2.95743     -11.3099 
0.00254837      5.46937     -33.5157 
-0.00332323      5.63799     -136.653 
-0.000439982      1.65003     0.347242 
0.00149388      5.96611     -2.59384 
-0.000873121     0.866833     -11.3099 
-0.000419880     0.557584      147.450 
-0.000568764      1.56975     -26.8915 
0.00162362      3.05655     -3.75173 
-0.000740453      1.83134      177.809 
-0.00250060      4.46885     -5.26408 
-0.00276214      4.47881     -5.25234 
-0.000537452      4.86039     -121.368 
-0.000413880      6.08896     -30.0600 
-0.000592647      3.82498     -103.455 
0.000865454      5.58151     -1.33461 
0.000756324      2.96724     -11.2721 
-0.000500402      1.66003     0.345150 
0.00102398      3.47639     -47.9148 
-0.000903808      5.43136      30.9095 
-0.000323955      1.55653     -27.5528 
-0.00154131      6.08533     -30.1887 
0.000548551      8.00900     -41.9128 
0.00153629      5.46133      18.1364 
-0.000787842      3.82267     -103.309 
0.000186322      5.06558     -29.7028 
-0.000635974      6.81076     -38.5021 
-0.000793514     0.191050      137.121 
-0.000183766      1.55235     -28.0508 
0.000506235      3.20025    -0.716161 
-0.00104533      1.55756     -12.6086 
-0.000402006      4.85519     -121.267 
-0.000291259     0.569386      149.381 
0.00107681      5.07427     -29.6468 
0.00153350      7.86975     -47.3688 
-0.00102419      1.84133      177.821 
-0.000118018      1.53951     -28.7293 
0.000729884      3.88805      176.313 
-0.000171632      2.64705     -6.50751 
0.000668436      4.61850      30.7297 
-5.78908e-05      1.54434     -29.0546 
-0.000113832      1.54052     -29.5604 
0.00166478     0.547083     -161.896 
-0.000379651     0.679559     -122.989 
-0.000517720      3.50203     -149.261 
0.000729358      8.02312     -41.9182 
-0.000219565      1.54185     -30.3902 
0.000264478      2.97511     -11.0456 
-0.000159559      6.05799     -29.3578 
0.000413616      6.45901     -70.2746 
-0.000106623     0.578014      149.886 
0.00181943      3.56665     -118.649 
-0.00136859      3.93127     -1.45759 
-0.00106365      6.07668     -30.2361 
0.000550701      3.79697     -86.5272 
-0.000411555      1.54693     -30.7097 
0.000524699      5.01758     -47.3422 
-0.000789328      5.43994      30.8554 
-0.000581054      3.94221     -57.6403 
-0.000288800      5.54304     -3.93096 
0.000399586      3.46970     -48.0373 
-0.00140817     0.674166     -122.276 
0.000405400      4.06177     -42.8051 
0.00175632      4.27855     -22.2490 
0.00120977      4.62361      30.8362 
-0.00156679      3.70390     -104.862 
-0.000879654      1.25256      176.338 
5.14960e-05      5.00625     -50.2677 
-5.11818e-05     0.590593      151.699 
-0.000427997      3.50224      64.4593 
5.07115e-05      3.34054     -178.971 
-0.000453627      6.05310     -29.2753 
0.00211256      6.11118      1.12514 
-0.000100015      3.70135     -104.712 
0.000652602     0.750067      89.2361 
-0.000194278     0.599416      152.152 
-4.95973e-05      4.85001     -121.166 
0.00102694      1.82800      36.9953 
0.000232037      7.99212     -49.9741 
0.000527424      4.85990     -93.6572 
-0.000333057      1.55206     -31.0271 
4.85689e-05      2.31054     -178.760 
0.000316489      4.31928     -131.997 
0.000601808      4.86055     -3.77487 
0.000136805      6.70119     -117.942 
0.000361027      3.06653     -3.73950 
0.000321003      6.45564     -70.3581 
0.000579222      1.12147     -171.798 
-9.51523e-05      2.05205     -171.593 
0.000268696      5.95658     -2.69428 
-0.000767750      5.33769     -61.7065 
-0.000635638      3.49344     -149.177 
0.000117388     0.263059      8.74615 
0.000520287      5.80432      35.2508 
0.00175704      2.02277      165.689 
-9.23413e-05      2.06194     -171.634 
4.64069e-05      3.29006     -89.6517 
0.000987085      4.87247      20.2945 
-0.00274407      3.92841     -57.6854 
-0.000340548      4.67068     0.981416 
9.16073e-05      3.43402      47.9508 
0.000428482      3.79759     -86.3766 
-0.000477522      5.64300      134.426 
0.00110602      3.29014     -89.4776 
-0.000133157     0.612699      153.853 
-0.000309661      1.56064     -30.8378 
0.000850922      3.40695     -12.2005 
0.000687808      7.28506     -47.8374 
0.000527594      3.87807      176.304 
0.000131414      3.46302     -48.1604 
-0.000133679      2.06342     -171.359 
4.50660e-05      2.01308      165.619 
-0.000406171      5.33295     -61.8011 
-0.000213894      1.71003     -89.6649 
0.000423475      3.42733      48.0749 
8.82951e-05      5.08296     -29.5911 
0.00133023      4.12801      111.905 
0.000444666      3.68213     -65.1053 
8.67605e-05      4.85127     -45.8352 
0.00581682      4.62433      152.992 
-0.000808349      2.79358     -124.942 
-0.000481710      2.07331     -171.401 
-0.000536321      1.54311      47.6264 
0.000957325     0.750267      88.4725 
-0.000282810      3.78747      140.679 
0.000555883      3.23818     -75.1484 
-0.000703931      2.02714     -151.412 
0.000572078      4.43298     -62.1632 
0.000343526      6.45229     -70.4417 
-0.000367326      1.56579     -31.1520 
-8.35942e-05      3.49794      64.6071 
-8.17221e-05     0.876641     -11.1818 
0.000564872      4.85824     -45.7506 
-0.000689486      2.31821      97.1863 
4.23695e-05      5.07803     -29.4930 
-4.23148e-05      5.07666     -76.6755 
-0.000199647     0.621691      154.259 
-0.000239111      2.03593     -151.547 
0.000820075      6.80883      28.0329 
0.000218833      2.33317     -35.0524 
-0.00162562      2.18662      144.493 
-0.000319204      7.04611     -57.4602 
0.000119234      7.98569     -50.0291 
-0.000153818     0.183848      135.000 
-4.16150e-05      6.00748     -25.3280 
-8.25145e-05      5.08639     -76.7014 
0.000159990      4.19949     -152.947 
-0.000121727      4.27730      34.6189 
0.000159502      3.07587     -3.54148 
0.00163239      6.57012     -46.0484 
0.000484362      8.01645     -41.8650 
0.000904307      7.56651     -52.4637 
-0.000413493      6.01225     -25.2011 
-0.00102904     0.380132     -35.3625 
-0.000235555      4.86121     -73.8765 
0.000120641      4.79914      27.4194 
-7.85143e-05      3.88013     -56.3509 
-0.000157752      3.91900     -136.654 
4.02256e-05      5.37331     -58.4693 
7.76752e-05      4.32598     -132.096 
0.000587220      4.33232      71.5651 
3.99417e-05      3.86395     -153.236 
-0.00227505      1.55724      47.6026 
0.000713647      3.42066      48.1995 
0.000736629      7.80830     -46.2454 
0.000378650      1.82003      37.1847 
0.000419962      5.46103     -33.5737 
-3.94363e-05      5.09613     -76.7273 
0.000591413      3.42913     -122.253 
-0.000396595      1.55003     -13.0500 
0.000227395      4.80801      27.3645 
0.000216219      1.13137     -171.870 
-0.000327971      4.28553      34.5430 
-0.000217812      3.49847      64.9732 
-0.000967969      1.57436     -30.9638 
-0.000606628      5.64526     -136.723 
0.000109704      5.08674     -29.4375 
7.53387e-05      6.69651     -117.866 
-7.59416e-05      4.65242     -54.9777 
0.000506090      2.32499     -35.1939 
-0.000331642     0.668880     -121.551 
0.000511788      2.86923      11.6624 
-0.000412279      4.66069     0.983521 
0.00115392      5.99608     -17.7702 
0.000349199      3.08585     -3.53001 
0.000639717      3.79824     -86.2261 
-3.79526e-05      5.10586     -76.7531 
-7.16623e-05      4.83112     -121.025 
-0.000779014      3.89647      134.272 
3.74868e-05      1.92658     -110.034 
0.000381760     0.760263      88.4926 
0.000230633      2.67675     -32.7995 
0.000107733      6.10099     -1.03309 
-7.34857e-05      3.92628     -136.754 
-0.00213571      6.00031      12.4149 
-0.000108542      3.77974      140.583 
0.000435459      2.92058      25.7754 
-0.00115989      5.74256      9.11786 
3.70585e-05      3.55407      87.2584 
-0.000542057      3.74001     -49.8806 
-0.000137654      3.82732     -103.601 
0.000144875      1.93003     -110.313 
0.000963316      7.86298     -47.4224 
0.000358085      3.32343      135.244 
-0.000205733      7.05150     -57.3917 
7.29801e-05      6.69341     -49.2409 
-0.000170736      5.44853      30.8014 
-0.000225352     0.635610      155.854 
7.16123e-05      5.86008    -0.293321 
-0.000507053      2.08319     -171.442 
0.000926884      4.81690      27.3098 
-3.63269e-05      4.65816     -54.8770 
-0.000136604      3.48485     -149.093 
-3.62242e-05     0.886454     -11.0564 
7.07055e-05      5.59151     -1.33222 
0.00124180      3.24076     -74.9775 
0.000141291      1.80602      37.1237 
0.000166271      3.55456      87.0973 
0.000139112      6.68768     -117.906 
0.000496122      2.78289      78.8112 
3.57598e-05      7.79416     -46.2476 
7.06246e-05      6.10050      21.1387 
-0.000136464      2.08943      131.702 
0.000456522      7.29178     -47.7792 
0.000157068      6.69448     -49.3616 
-0.000734377      4.85845     -73.9898 
6.97999e-05      3.86875      176.147 
-0.000738843      5.94004     -60.1115 
0.000332571      2.42986      82.6703 
-3.51965e-05      5.11559     -76.7787 
-0.000166576      4.66393     -54.7765 
0.000136059      1.93352     -110.591 
-0.000407518      2.09609      131.906 
-0.00124214      2.02237     -151.661 
9.93284e-05      2.07993      158.864 
-0.000300828      3.70648     -105.011 
0.000973549      1.81207      37.3758 
-0.000115972      1.56924     -30.6507 
0.000299761      6.15532      27.8973 
0.000136157      3.91894     -64.9389 
-0.000107000     0.660379     -122.005 
0.000390490      2.01884     -99.6956 
0.000680228      6.10983      21.1048 
0.000484488      5.20973     -72.9215 
-3.41923e-05      5.54374     -4.03407 
-9.87353e-05      3.36394     -169.726 
-0.000551294     0.655134     -121.264 
0.000608037      3.86809      176.294 
0.000867176      7.57261     -52.4037 
0.000908428      7.80139     -46.2984 
0.000605792      8.02390     -41.8174 
9.82407e-05      5.86014    -0.391092 
3.36412e-05      6.61214     -55.9735 
-6.65960e-05      2.97567      7.53102 
3.34788e-05      5.24869      14.5658 
-9.85734e-05      4.29377      34.4673 
-3.32853e-05      3.92674     -136.961 
-0.000282686      2.19477      144.644 
0.00120449      6.60386     -55.9249 
-0.000275317      5.55371     -4.02681 
-0.000904150      3.23619     -176.457 
0.000244967      5.96657     -2.68977 
-0.00112261      3.75681      18.6279 
-0.000244616      5.96154     -120.436 
0.000350520      6.68300     -117.830 
0.000388552      3.92319     -64.8067 
-0.000254406      3.49425      65.1218 
0.000126651      4.86541     -45.8327 
6.37635e-05      5.09545     -29.3823 
-9.28117e-05      3.35394     -150.531 
0.000534522      4.05710      86.6087 
9.49397e-05      2.17681      60.2551 
9.31576e-05      5.23902      14.5933 
-0.000314072      2.98429      7.31552 
0.000472859      4.83037      27.3608 
0.000425163      6.80000      28.0725 
-0.000857827      5.65255     -136.792 
0.000152658      1.93706     -110.868 
-0.000274187      3.92307     -57.8088 
0.000171497      6.10118     -1.12698 
0.000628574      2.78097      79.0133 
-0.00144005      4.17481      142.005 
-0.000629760      5.52754     -85.4343 
6.34059e-05      1.79805      37.3160 
0.000256612      1.13000     -172.372 
-9.35655e-05      4.29944      34.5772 
-0.000184844      3.70908     -105.160 
0.000467082      3.85877      176.137 
0.000410634      6.16416      27.8538 
0.000115331      6.44895     -70.5255 
-0.000307289      4.86806     -74.0223 
-6.06941e-05     0.896270     -10.9338 
-0.000119758      3.43233     -97.8704 
-9.04028e-05      2.29687     -73.3008 
-0.000346843      1.93132     -74.3806 
0.000148974      7.78725     -46.3008 
-3.11990e-05      1.54029     -13.1340 
0.000180564      3.41400      48.3246 
0.000347173      4.52712     -124.743 
-3.09921e-05      5.34649     -61.7573 
0.000299454      2.41868      82.8750 
0.000681901      5.28371     -5.43005 
0.000265343      3.43447     -122.394 
-0.000118586      3.47628     -149.008 
-0.000172989      3.63407      31.1530 
0.000171782      5.86021    -0.488860 
-0.000288496      3.73358     -49.9979 
-0.000290064      3.87981     -130.505 
0.00174186      4.19887      137.993 
8.80786e-05      3.41672     -12.1650 
-0.000423943      4.37987     -12.2592 
3.05133e-05      4.82578      27.2553 
0.000419267      2.91158      25.8610 
-6.04859e-05      4.65069     0.985636 
-3.03439e-05      3.07548     -113.981 
0.000261198      2.02054     -99.9751 
-0.000249958      5.34177     -61.8518 
-3.02332e-05      4.66970     -54.6763 
-0.000736588      3.37378     -169.756 
0.000141947      4.87238     -45.7484 
-8.81031e-05      4.30768      34.5017 
-0.000245543      3.07956     -114.151 
-8.72493e-05      6.80294     -38.5546 
-8.57037e-05      5.63586      134.497 
-0.000114619      5.45712      30.7477 
-0.000509405      4.65053     0.862452 
2.97473e-05      4.43766     -62.0490 
-0.000871191      1.58142     -40.6406 
-0.000115457      4.86532     -74.1355 
2.96393e-05      4.20840     -153.009 
-0.000737815      3.72400     -105.417 
0.000246871      5.09598      51.5333 
-0.000336950      7.04847     -57.2794 
2.94764e-05      5.79615      35.3079 
-2.93770e-05      4.82597     -120.923 
2.93624e-05      2.17313      59.8954 
-0.000316322      2.31698      96.9410 
-0.000113957      6.08173     -30.3175 
0.000403395      3.64157      41.4375 
-0.000482588      3.94240      164.554 
0.000600399      3.45393      103.392 
0.000109556      1.34123      165.757 
5.65256e-05      5.10417     -29.3272 
0.000215987     0.750600      87.7094 
-0.000111152      6.02130     -25.1606 
0.000462327      1.37058     -159.053 
-0.000112440      5.56369     -4.01958 
0.000806435      3.46205     -82.1976 
-5.57793e-05      3.94138     -137.159 
-0.000227877      2.29976     -73.0621 
0.000542383      5.97656     -2.68527 
-5.60178e-05      2.98811      175.778 
0.000425431      3.40654      48.2128 
-2.84751e-05      4.01888      34.0459 
0.00130272      6.79530      27.9981 
0.000239431      1.84261     -117.121 
-0.000693115      2.09690      131.520 
-0.000259840      4.48662     -30.3943 
-5.46426e-05      5.92054     -89.2258 
-8.14095e-05      3.46256     -149.065 
0.000832209      2.00898     -99.7436 
0.000126345      2.66835     -32.9158 
-0.000128065      4.02717      33.9663 
8.11382e-05      4.55685     -138.826 
-8.05429e-05      3.25295     -5.11470 
-0.000156969      3.20002     -112.799 
-0.00102323      3.22560     -176.623 
-2.74817e-05      5.94786     -120.402 
-0.000108075      5.56299     -3.91684 
-8.03944e-05      4.80713     -120.780 
-5.34998e-05      2.39771     -67.1779 
-2.71601e-05      4.67549     -54.5763 
-0.000240489      1.36132     -87.4739 
2.71323e-05      6.24878      18.0870 
0.000153944      5.11289     -29.2723 
-5.32617e-05      4.11602      30.6773 
0.000152725      6.39735      18.6898 
5.27662e-05      6.46239     -42.4288 
-0.000128427      5.94280     -120.319 
-5.20838e-05      4.31592      34.4265 
-0.000376469      4.33278      19.2713 
-0.000156368      3.87332     -130.393 
-0.000441892      7.85127     -41.2820 
-0.000427129     0.646607     -121.724 
0.000209752      6.40682      18.6612 
-0.000416234      2.09308     -171.483 
-0.000246019      5.45202      30.6574 
0.000492903      7.79449     -46.3516 
-7.92129e-05      3.64264      31.0717 
0.000542318      6.78647      28.0377 
0.000321859      8.03135     -41.7698 
-7.61743e-05      3.29952      12.6041 
-0.000336013      3.88950      134.167 
-7.70044e-05      2.15149      87.8690 
-5.25763e-05      3.94194     -137.365 
-0.000103390      6.51577     -59.7752 
-0.000129507      3.74124     -50.0964 
-0.000125276      2.99737      175.982 
5.20127e-05      2.02158     -2.26796 
0.000155937      5.30635     -6.70984 
2.64738e-05      6.23927      18.1155 
2.64613e-05      1.93497     -111.526 
-0.000714208      5.57297     -3.90982 
-0.000595033      1.11544      95.6595 
0.000193758      4.53283     -124.847 
2.62652e-05      7.97286     -50.1392 
-0.000168355      5.23138     -91.3144 
0.000607394      5.27376     -5.44033 
-0.000162613      6.98387     -123.258 
0.000100015      3.92745     -64.6746 
0.000100428      6.01827      20.4223 
0.000119687      4.32917      71.6906 
0.000472546      6.09118     -1.12883 
0.000245522      6.17768      27.8924 
-7.67254e-05      7.27602     -37.0116 
-0.000386514      6.01706     -25.0744 
0.000357256     0.774209     -54.4623 
-2.57176e-05      4.12972      30.7258 
0.000845676      3.68774      169.848 
4.87685e-05      4.56344     -138.731 
-2.55447e-05      5.03543     -76.6813 
-0.000162899      5.93507     -60.1952 
-9.82503e-05      3.94930     -137.463 
-0.000719614      7.28401     -36.9643 
7.28951e-05      2.03246      165.759 
-0.000121443      4.44771      157.529 
2.53129e-05      6.25189      18.1741 
0.000427681      5.29641     -6.72248 
-0.000232063      6.18556     -78.4357 
0.000119367      1.35093      165.861 
-0.000227868      4.68105     -45.0000 
5.01919e-05      5.98609     -2.58518 
2.51561e-05      5.86031    -0.586626 
-0.000119835      3.62891      31.0179 
0.000336733      2.90259      25.9471 
-0.000139779      4.13832      30.6551 
0.000623541      5.93249     -18.6793 
-0.000267951      4.30091     -118.770 
-0.000235946      3.88094     -130.297 
-0.000609643      1.66412      146.023 
0.000162958      7.29110     -47.6682 
2.48773e-05      2.08543      157.739 
2.48899e-05      1.93866     -111.801 
-0.000118034      3.72716     -50.1157 
-9.73581e-05      6.52081     -59.6993 
-4.84074e-05      3.45398     -148.979 
-7.26041e-05      5.02570     -76.6550 
-0.000160441      1.93404     -74.0953 
7.25605e-05      1.84719     -117.397 
-7.25977e-05      3.73484     -50.2141 
0.000503031      6.40056      18.7746 
-2.44735e-05      2.78787     -124.773 
4.86177e-05      3.46342     -82.0337 
2.43665e-05      6.44562     -70.6093 
-0.000400137      3.95204      164.592 
-0.000129128      3.81997     -103.782 
4.69450e-05      6.24239      18.2027 
0.000207477      3.24336     -74.8069 
0.000230772      5.07572      51.6399 
-0.000286272      6.51724     -59.5790 
-9.20137e-05      3.19470     -113.034 
-0.000140435      4.65039     0.739259 
2.39250e-05      4.22623     -153.132 
2.39022e-05      1.94240     -112.075 
-0.000209249      2.01249     -177.152 
-0.000596005      6.65138     -32.9733 
-0.000279741      4.47800     -30.4591 
-6.98434e-05      2.16148      87.8789 
0.000450276      5.92623     -18.8018 
0.000136376      5.10800     -29.1744 
-0.000542394      4.18269      142.089 
6.75037e-05      7.96645     -50.1944 
-6.87659e-05      2.97437      7.34005 
2.36886e-05      3.91842     -64.6121 
2.36780e-05      2.01159     -2.27923 
-7.01658e-05      5.18299     -42.0283 
2.35734e-05      2.08000      157.380 
0.000466278      4.04654      86.7416 
-0.000282170      5.71386     -87.8937 
4.59806e-05      6.02764      20.3892 
-9.02836e-05      5.92912     -120.284 
-0.000219681      5.01830     -76.5176 
0.000112058      1.47801      127.025 
-0.000106736      4.04105      34.0047 
-2.32492e-05      2.39385     -67.3985 
-8.96155e-05      3.25523     -103.140 
-0.000504259      3.97997      123.730 
0.000675128      5.98655     -2.68079 
8.99232e-05      1.85151     -116.980 
0.000254163      3.92272     -64.4801 
-0.000467124      6.50081      19.9680 
0.000241482      6.39110      18.8035 
-0.000130289      3.08869     -114.075 
-0.000274405      5.44342      30.7110 
-0.000236929      3.91996     -57.6073 
6.35697e-05      6.67834     -117.755 
-0.000195660      5.19042     -41.9544 
-0.000213415      1.65855      146.310 
0.000217949      8.03881     -41.7223 
2.28690e-05      1.94618     -112.348 
-8.69474e-05      3.95668     -137.561 
-0.000241442      4.45695      157.578 
4.44742e-05      1.12872     -172.875 
-0.000151945      4.64039     0.740852 
-0.000123566      3.00734      175.996 
-0.00100895      3.23558     -176.634 
-0.00383356      5.65940     -136.718 
-0.000265589      5.18374     -41.8722 
-0.000483428      3.72075     -50.2339 
4.42109e-05      4.89547     -28.5544 
6.58739e-05      2.07858      156.765 
-8.57587e-05      2.30269     -72.8241 
-0.000484314      7.85036     -41.3850 
-0.000109194      3.17530     -153.838 
0.000143587      4.47224     -142.541 
-0.000106623      7.05389     -57.2111 
0.000274095      7.80172     -46.4022 
-8.73663e-05      4.62004    -0.248032 
-4.37536e-05      3.63749      30.9367 
-0.000267189      2.16187      87.6141 
0.000435379      5.28532     -6.62751 
0.000452443     0.572451     -160.615 
0.000362305      7.85622     -47.4761 
-0.000200418      5.23116     -91.2049 
-2.19502e-05      2.39002     -67.6199 
0.000107034      7.57589     -43.4490 
0.000125897      4.32604      71.8163 
2.17763e-05      3.42650     -12.1298 
-0.000248006      3.72136     -105.269 
0.000162966      4.53855     -124.951 
0.000459545      3.60702     -5.56834 
0.000183147      4.83926      27.3064 
-8.30175e-05      5.35059     -61.9023 
-0.000238022      4.37010     -12.2871 
-8.01278e-05      4.32418      34.3516 
0.000715959      6.08118     -1.13069 
0.000119938      3.25042     -75.0232 
-2.14362e-05      3.11365     -154.916 
0.000103868      5.11674     -29.1199 
2.14025e-05      2.16093      59.4000 
-0.000191359      3.87448     -130.184 
8.12687e-05      1.85607     -117.255 
-0.000317661      5.75402      9.20040 
2.13109e-05      1.95000     -112.620 
6.22586e-05      2.07338      156.402 
0.000158765      4.90425     -28.4986 
8.01378e-05      6.00561     -17.7410 
-0.000143626      5.57366     -4.01238 
-0.000289506      4.87026     -89.4118 
-2.11596e-05      2.98304      7.12502 
-0.000385217      4.63001    -0.123750 
0.000138282      3.64907      41.3336 
-4.19687e-05      4.14693      30.5846 
8.10065e-05      7.96006     -50.2497 
-0.000395745      3.16632     -153.759 
-0.000362301      6.00247      12.5081 
-0.000388349      1.11647      96.1702 
5.90960e-05      4.55593     -138.648 
-0.000101263      5.91041     -120.166 
4.16826e-05      2.15745      59.0362 
4.17622e-05      2.11085      26.4437 
0.000344817      5.68834     -69.8448 
0.000102594      2.50186      155.689 
0.000132630      7.29784     -47.6101 
0.000121451      3.77005      116.293 
-6.00067e-05      1.93680     -73.8108 
2.08641e-05      6.45501     -42.4886 
4.15708e-05      5.26380     -5.45065 
-0.000101300      3.88932      134.375 
-8.03196e-05      3.18550     -113.104 
2.07320e-05      5.45271     -33.6318 
-4.05798e-05      4.64027     0.617387 
0.000286144      7.56863     -43.5010 
0.000390897      4.12078     -178.888 
-4.04609e-05      3.27686     -17.2184 
0.000233823      5.26476     -5.55899 
6.07661e-05      4.13176      112.033 
2.05449e-05      1.47201      126.714 
0.000158810      8.03963     -41.6217 
0.000118839      2.13321      26.4449 
-6.02447e-05      3.26497     -103.100 
-0.000238709      6.13479     -130.571 
2.04633e-05      5.77405      35.3416 
-0.000252755      5.51838     -85.3226 
0.000133214      1.82609      37.4347 
-0.000383130      2.10297     -171.523 
-5.97499e-05      5.75170      1.39475 
-0.000311733      5.58295     -3.90282 
-0.000264563      7.29200     -36.9170 
5.91300e-05      3.43984     -122.535 
0.000506345      6.56319     -46.1112 
0.000815608      5.91676     -18.8330 
-5.89472e-05      4.64000      0.00000 
5.99411e-05      2.14888      58.8991 
-0.000238311      6.19337     -78.5449 
0.000167123      3.43628     -12.0948 
0.000247567      3.27410     -134.381 
0.000118213      6.18868     -108.757 
-0.000172568      3.38362     -169.786 
-0.000204743      4.33609      19.3961 
5.94905e-05      5.76590      35.3991 
-2.01361e-05      4.06005      103.968 
0.000287516      2.51098      155.783 
-3.99491e-05      2.38805     -68.3768 
-0.000115540      7.05931     -57.1429 
2.00448e-05      2.06422      156.291 
1.99828e-05      1.95778     -113.160 
-0.000116111      3.96168      164.631 
-1.99782e-05      3.09278     -114.245 
7.78219e-05      2.05913      155.925 
-0.000837966      6.12720     -130.632 
-0.000254716      4.30488     -118.589 
-5.77863e-05      1.57385     -40.8777 
1.98153e-05      5.12548     -29.0655 
-0.000386048      6.51369     -59.4586 
5.73418e-05      6.11099      1.03140 
-1.97605e-05      5.35494      25.0815 
5.66519e-05      3.41321      48.0877 
0.00294516      4.61979      153.102 
0.000249437      6.41003      18.7459 
9.66289e-05      5.12063     -28.9677 
0.000969041      3.59707     -5.58380 
9.46808e-05      6.68797     -49.4266 
0.000133614      7.81586     -46.3997 
-0.000184307      4.31956     -14.0684 
-0.000188978      5.35071      24.9845 
-0.000239593      3.88233      134.269 
1.95029e-05      3.55308     -118.585 
-1.95098e-05      2.38439     -68.6002 
-0.000111505      3.26731     -17.2703 
0.000224427      5.55407      136.970 
9.30394e-05      4.32293      71.9423 
0.000324113      2.77308      78.7711 
-3.85174e-05      4.05765      103.831 
0.000183060      6.30563     -34.9250 
3.85841e-05      2.14033      58.7608 
0.000203631      3.91802     -64.2852 
-0.000223601      3.73101     -105.228 
-3.77694e-05      3.10190     -114.169 
1.93650e-05      2.40753      83.0816 
7.47395e-05      6.01210     -17.6212 
1.93407e-05      2.05185      165.896 
-5.72106e-05      6.68731     -28.9797 
-5.72976e-05      4.46978     -5.39172 
0.000452556      3.76563      116.157 
5.70220e-05      5.75775      35.4567 
-3.81962e-05      5.35941     -61.9527 
-0.000274859      5.19119     -41.7985 
7.41752e-05      3.45626      103.554 
1.92080e-05      5.89042    -0.680903 
0.000310314      5.28417     -6.51980 
0.000165034      7.95367     -50.3051 
0.000329179      6.59826     -55.9968 
-0.000179457      2.18900      144.858 
0.000182006      8.04711     -41.5744 
-0.000212601      6.01283     -24.9881 
0.00107432      6.17921     -108.787 
-1.89720e-05      5.00857     -76.4909 
-0.000411029      4.45982     -5.40379 
5.59828e-05      2.13516      58.9902 
-7.39292e-05      2.82793      109.845 
-0.000109262      4.45028     -53.7738 
0.000162656      4.12626      112.214 
0.000606259      6.16884      27.9359 
-0.000478052      1.56400      47.3320 
9.26646e-05      5.12938     -28.9136 
0.000194883      2.05412      155.556 
-1.88028e-05      2.38076     -68.8243 
-0.000482158      4.63000      0.00000 
1.87772e-05      3.44523     -122.675 
0.000127680      2.14663      26.5651 
-0.000362944      6.66611     -124.858 
-5.56784e-05      5.43482      30.7649 
-1.87213e-05      6.51878     -59.3829 
0.000108626      4.84814      27.2521 
7.27723e-05      4.54428     -125.054 
-3.67464e-05      3.18025     -113.341 
-1.86968e-05      3.93154     -1.60328 
-0.000145186      4.11536      92.9250 
-3.69860e-05      4.46938     -30.5240 
-5.44194e-05      6.02189     -24.9479 
-5.49781e-05      4.77462     -120.593 
-1.86318e-05      1.36180     -87.0536 
1.86427e-05      2.89360      26.0337 
0.000172967      3.85811      176.285 
5.42901e-05      3.63341     -81.1339 
0.000438297      4.11078     -178.885 
0.000391939      6.41950      18.7172 
5.50154e-05      5.74961      35.5145 
1.85321e-05      5.20017     -72.8892 
-0.000272811      6.67856     -29.0213 
-0.000105931      5.89674     -120.131 
5.49825e-05      6.30317     -35.0516 
-0.000143160      4.17757      119.388 
-0.000426332      3.15736     -153.678 
-0.000138611      3.81026     -103.817 
0.000124786      7.82311     -46.4502 
-0.000106911      3.96869      164.808 
-1.83359e-05      5.51601     -126.745 
-3.62268e-05      4.05527      103.694 
5.38166e-05      5.06167      51.6584 
-0.000644050      7.84948     -41.4881 
0.000124421      5.25481     -5.56955 
7.17422e-05      2.12659      58.8514 
-0.000257417      3.71436     -50.3524 
-1.81722e-05      5.42623      30.8189 
-1.81554e-05      4.37420     -25.7449 
-5.32312e-05      2.09781      131.135 
-8.88911e-05      2.04472     -151.680 
8.74073e-05      1.36704     -159.444 
0.000107269      5.13331     -28.7619 
-0.000209927      5.35978      24.9394 
-1.81083e-05      7.06474     -57.0747 
-5.37010e-05      5.52403     -126.683 
-1.80871e-05      5.36824     -62.0029 
0.000223762      7.84947     -47.5299 
-5.35816e-05      5.62766      29.2524 
-3.57148e-05      6.65682     -33.0455 
0.000260946      4.20630      138.084 
0.000104750      5.14421     -10.9823 
3.57540e-05      5.74147      35.5725 
-7.05143e-05      3.28247      161.344 
-0.00130700      7.61208     -36.6140 
1.79873e-05      4.54843     -138.565 
1.79762e-05      4.91304     -28.4429 
0.000139889      5.54676      136.899 
-0.000202021      5.76390      9.18451 
-1.79066e-05      6.65977     -32.9265 
5.20398e-05      6.02163     -17.5924 
-0.000119825      4.38321     -25.6881 
-0.000360652      6.44157      29.0719 
0.000120107      3.28110     -134.506 
-5.29546e-05      5.37820      31.0003 
3.51011e-05      3.69758      169.875 
-3.51670e-05      2.39008     -68.9109 
1.77868e-05      3.42987     -48.7826 
0.000358078      6.07119     -1.13255 
-3.51561e-05      3.39346     -169.816 
-6.92209e-05      7.05634     -57.0306 
-3.49980e-05      3.27471     -103.060 
1.76800e-05      5.20312     -72.7839 
8.45189e-05      6.68147     -49.4917 
-5.19891e-05      3.17107     -113.412 
3.47451e-05      3.65568      41.4513 
1.76664e-05     0.750000      90.0000 
3.40010e-05      4.28404     -22.0746 
-6.94452e-05      7.30000     -36.8699 
1.76503e-05      2.07126      166.031 
1.76334e-05      3.92869      81.9524 
-3.46574e-05      2.81853      109.914 
-0.000135516      3.72839     -105.080 
-5.16810e-05      4.31028      34.3168 
0.000263618      5.97704     -2.78103 
-3.45036e-05      4.76954     -120.490 
-1.75739e-05      3.38186     -169.953 
0.000101656      1.45248      172.484 
-0.000152176      6.38283      38.5757 
1.75409e-05      6.66949     -117.795 
5.23737e-05      5.14208     -28.7083 
-0.000118473      3.93686     -57.7632 
0.000218401      3.91337     -64.0897 
-0.000117430      3.25776     -17.3225 
-0.000396266      4.11486      92.7859 
-3.47021e-05      5.36963      31.0553 
3.47881e-05      3.42329     -48.9085 
-1.74760e-05      2.42297     -160.219 
3.46476e-05      5.73334      35.6306 
-0.000235843      4.39005     -128.619 
1.74219e-05      4.55247     -124.982 
5.03224e-05      3.62509     -80.9534 
0.000233371      7.94728     -50.3606 
3.44999e-05      2.15557      26.4462 
3.45532e-05      4.04712      86.6003 
-0.000184534      3.88218      134.478 
0.000167683      8.05459     -41.5272 
-0.000319508      4.12311      177.776 
3.41094e-05      4.46430     -142.463 
0.000149024      2.12144      59.0826 
-3.42591e-05      4.36799     -12.1589 
0.000278760      5.68241     -69.7154 
-3.40682e-05      5.23096     -91.0954 
0.000136295      5.13729     -28.6105 
-8.44160e-05      5.60643      29.4914 
-0.000248206      3.98830      123.650 
6.75424e-05      4.00661     -176.709 
1.72980e-05      3.94143      81.6849 
3.42473e-05      1.46697     -115.866 
-0.000133531      4.32200     -14.1970 
-1.72492e-05      5.37707     -62.0529 
-0.000309483      4.18249      119.507 
1.72438e-05      7.30459     -47.5522 
-0.000320780      5.19786     -41.8807 
6.79657e-05      6.01513     -17.7120 
-0.000152209      3.32182     -175.165 
-8.32084e-05      2.43239     -160.299 
6.74682e-05      4.85704      27.1981 
0.000293596      6.31136     -34.9995 
9.98544e-05      2.01070     -100.024 
-0.000194308      2.05828     -151.567 
3.41473e-05      6.88538     -40.7006 
-9.79026e-05      5.51806     -126.600 
8.29025e-05      6.05100     -1.04163 
1.71480e-05      3.47196     -82.2200 
0.000198792      5.28305     -6.41205 
8.26137e-05      4.55821     -125.085 
-8.10970e-05      1.96797      50.5672 
0.000163412      4.13005      112.342 
0.000491682      6.42897      18.6886 
1.70360e-05      2.08096      166.097 
-9.88103e-05      6.50423      20.0508 
5.03219e-05      5.59607      37.1566 
1.70210e-05      4.64875     -122.972 
-0.000115961      3.27300      161.288 
-9.89812e-05      3.97834      164.846 
8.34551e-05      5.30996     -94.9697 
5.04412e-05      3.42428     -49.1446 
-1.69940e-05      2.97311      7.14892 
6.62318e-05      4.03656      86.7336 
-0.000240868      6.20119     -78.6538 
1.69672e-05      3.44890      103.754 
-0.000162584      3.39171     -169.982 
-6.40568e-05      4.45835     -53.8498 
1.69469e-05      5.27311     -6.42419 
0.000146855      5.55360      136.824 
6.64392e-05      2.16005      26.6837 
-5.04599e-05      5.36106      31.1104 
-4.97556e-05      3.28672     -103.191 
-1.69364e-05      2.38650     -69.1349 
0.000115956      5.15403     -10.9611 
0.000520302      3.14682      144.441 
-3.35809e-05      7.30800     -36.8229 
1.68687e-05      5.58810      37.2185 
4.93881e-05      4.31984      72.0684 
-0.000114766      5.88308     -120.095 
-1.68055e-05      6.20317     -78.5633 
-3.28181e-05      3.16590     -113.650 
1.67977e-05      4.08864      43.4144 
3.30584e-05      3.44606     -12.0599 
-0.000146165      3.41786     -103.020 
-8.27888e-05      5.58364     -4.00520 
1.67611e-05      3.95577      81.2759 
-1.67555e-05      3.63235      30.8014 
0.000229687      6.79061      27.9236 
-0.000226820      5.36885      24.8944 
1.66968e-05      5.13250     -28.5125 
-6.48665e-05      1.65024      146.117 
0.000838093      5.33769      40.9739 
-0.000222237      3.23501     -176.810 
1.66018e-05      1.83404      37.2448 
6.60478e-05      4.20709      138.276 
0.000598756      4.10078     -178.882 
9.87349e-05      5.14129     -28.4593 
4.87150e-05      7.83036     -46.5006 
-8.03464e-05      5.59772      29.5418 
3.28038e-05      6.31383     -34.8731 
3.30422e-05      6.58997     -55.9482 
-3.27199e-05      3.86804     -130.071 
3.29731e-05      6.87887     -40.6374 
0.00108916      4.97019      145.990 
-6.42461e-05      1.56630     -41.1171 
1.65383e-05      4.55505     -138.471 
-6.50604e-05      7.31601     -36.7759 
-7.94030e-05      2.97189      6.95762 
-0.000360881      3.33179     -175.179 
1.64983e-05      5.25579     -5.67805 
6.51586e-05      3.41775     -49.2714 
3.26255e-05      1.45798     -116.038 
-4.82906e-05      7.06179     -56.9625 
4.84990e-05      7.84885     -47.4268 
-0.00269188      7.60612     -36.5535 
-3.27294e-05      5.35250      31.1657 
0.000203620      5.60601      36.9517 
-0.000174999      2.78097      169.013 
-0.000142739      5.51920     -85.2191 
0.000145438      4.51837      147.013 
-3.22200e-05      3.72844     -50.3322 
6.37950e-05      4.09591      43.3182 
0.000203473      3.86745      176.442 
-3.24180e-05      2.39942     -68.9968 
6.44167e-05      5.47486     -27.6416 
3.20623e-05      1.84011      37.4927 
3.22875e-05      7.84272     -47.5838 
0.000174339      4.21456      138.366 
9.42819e-05      3.28125     -134.259 
3.23033e-05      3.96873      81.0124 
4.77453e-05      3.76124      116.020 
9.62885e-05      5.13654     -28.3612 
0.000126230      4.39014      13.4348 
0.000497325      6.06100     -1.03991 
-0.000293930      4.44185     -158.055 
0.000141770      6.88646     -40.5832 
-0.000244833      5.59292     -3.89585 
-1.62017e-05      2.10440      131.340 
4.79242e-05      5.24584     -5.68886 
-0.000141810      4.39629     -128.721 
-1.61820e-05      3.62724      30.6658 
0.00101727      5.91054     -18.9561 
-1.61436e-05      3.80055     -103.853 
-0.000218200      3.87518      134.373 
0.000123753      5.30000     -94.9791 
0.000124999      8.06208     -41.4801 
-0.00281905      7.31386     -33.3424 
3.19153e-05      6.67387     -49.4360 
-7.86427e-05      3.26676      161.066 
3.19538e-05      2.16899      26.5650 
-0.000783522      6.13372     -130.703 
-1.60506e-05      4.37776     -12.1313 
-0.000110075      5.34395      31.2212 
9.49987e-05      3.91775     -63.9582 
1.60410e-05      2.77505      78.5686 
-6.33410e-05      2.28980     -62.9873 
1.60074e-05      5.02738      51.7852 
0.000537388      6.79945      27.8841 
-9.20962e-05      3.29645     -103.151 
0.000317106      7.94091     -50.4161 
4.75603e-05      5.16385     -10.9400 
-7.77504e-05      3.73547     -104.892 
0.00423788      4.96460      146.086 
6.32385e-05      3.41123     -49.3987 
-0.000328694      2.10447     -171.254 
0.00125022      6.18243     -108.875 
0.000339250      5.27200     -6.31619 
0.000645376      4.50999      146.944 
-0.000107742      4.31231     -14.2296 
0.000140441      4.42137      38.2955 
0.000277762      7.43098     -40.7435 
1.59259e-05      4.27478     -22.1250 
-0.000136258      4.38755     -25.8058 
-4.74079e-05      3.98276      123.530 
1.59192e-05      5.12774     -28.4143 
-1.58904e-05      3.24821     -17.3751 
-3.13927e-05      4.75585     -120.447 
-7.78090e-05      3.40084     -148.834 
0.000763024      6.43845      18.6601 
0.000109455      5.12299     -28.3159 
0.000185196      5.47951     -27.7342 
4.72637e-05      4.99930      51.8235 
7.44025e-05      4.54757     -138.387 
-6.22136e-05      3.14396     -153.761 
-3.12625e-05      1.30015      89.1186 
1.57699e-05      3.25751     -75.2385 
3.13567e-05      5.70898      35.8060 
-0.000186221      7.30001     -33.3200 
0.000107404      7.84209     -47.4806 
-4.67416e-05      6.66982     -29.0630 
1.56993e-05      3.98177      80.7506 
1.56993e-05      6.03954     -83.4398 
-1.56842e-05      2.17230      87.3615 
9.23353e-05      4.28957     -21.9006 
0.000269725      3.90877     -63.8938 
-0.000198508      5.37792      24.8495 
-0.000121972      5.30519     -136.528 
0.000121927      5.54631      136.753 
-6.20271e-05      3.40156     -170.012 
-0.000224617      3.41040     -103.221 
4.65764e-05      6.05063     -83.3565 
-3.10491e-05      1.63637      146.213 
-4.58680e-05      3.98799      164.883 
9.26782e-05      4.98526      51.8428 
-0.000136979      5.52015     -126.455 
-3.09868e-05      5.87807     -120.011 
1.55793e-05      2.11632      59.3148 
4.63455e-05      3.40473     -49.5265 
0.000460202      3.75666      116.224 
-0.000235474      5.77377      9.16867 
-0.000429400      3.99110      123.451 
1.55350e-05      1.46240      172.535 
-6.17798e-05      6.30317     -125.052 
-4.63145e-05      2.30783     -62.6577 
3.09089e-05      5.61487     -45.7216 
0.000445593      5.13179     -28.2629 
9.09920e-05      4.13386      112.471 
0.000299725      6.31956     -34.9475 
-6.10309e-05      4.33942      19.5206 
0.000269826      5.97753     -2.87677 
-0.00185036      7.43135     -34.6952 
4.55787e-05      4.13937     -174.455 
0.000238970      4.22204      138.457 
3.04227e-05      7.83761     -46.5510 
1.54097e-05      3.98339      80.6086 
1.53971e-05      5.17366     -10.9190 
0.000135933      6.04948     -83.4506 
8.70349e-05      4.08906      43.2163 
-1.53630e-05      2.77908      169.216 
0.000106705      6.68768      25.2239 
-4.56909e-05      5.33540      31.2768 
-0.000163514      5.50924     -85.2104 
-3.01591e-05      3.63077      30.4495 
-1.53350e-05      2.11102      131.543 
-3.01790e-05      1.31034      88.6881 
-1.53300e-05      5.58903      29.5923 
-6.04994e-05      3.70799     -50.4714 
-4.48626e-05      1.46874      83.7460 
0.000282199      6.87236     -40.5742 
-7.56536e-05      3.41315     -169.875 
7.52483e-05      5.62186     -45.6486 
-1.52841e-05      7.83248     -41.0139 
-0.000105193      2.06708     -151.699 
-0.000310815      6.30892     -125.126 
-4.52975e-05      3.87569     -129.976 
-3.03732e-05      6.52231     -59.5033 
-0.000196559      7.29165     -33.3632 
-0.000394787      2.76926      169.177 
-8.98275e-05      3.25730      161.009 
-1.52637e-05      5.56793      29.8342 
6.07079e-05      4.97909      51.9333 
-6.05516e-05      2.32131     -62.5518 
-3.03978e-05      4.37855     -25.8628 
-1.52416e-05      4.88016     -89.5304 
6.03905e-05      3.39825     -49.6547 
0.000206030      4.09635      43.1205 
-0.000132625      4.11439      92.6468 
0.000118470      4.38041      13.4652 
-3.02496e-05      2.77115      168.974 
-0.000790227      5.99054      12.4354 
3.03054e-05      4.41352      38.3760 
-6.00625e-05      1.69452      141.710 
-2.99455e-05      2.42903     -160.521 
4.48033e-05      3.99490      80.4905 
1.51319e-05      5.68589     -69.6209 
-0.000176945      3.23447     -176.987 
4.49384e-05      5.12645     -15.5002 
-5.96068e-05      3.40940     -148.921 
4.50655e-05      6.69672      25.1875 
-2.99659e-05      4.38224     -128.701 
0.000118449      5.34506      47.8056 
6.00024e-05      4.97122      51.8622 
-5.91546e-05      5.55925      29.8855 
2.99748e-05      4.31033      72.0274 
0.000118472      4.29514     -21.7271 
-2.99437e-05      5.86441     -119.975 
-4.45550e-05      6.21100     -78.6720 
0.000291589      7.93454     -50.4718 
0.000176936      5.48836     -27.6856 
-0.000363494      3.34175     -175.194 
-4.48206e-05      5.32686      31.3327 
0.000147626      5.59802      37.0132 
-2.98873e-05      6.43283      29.1152 
1.50043e-05      4.41518      38.1937 
0.000190912      5.26097     -6.21992 
-1.49856e-05      5.23077     -90.9859 
-2.98161e-05      2.97069      6.76617 
4.45241e-05      6.11736      2.81096 
5.89056e-05      3.61365     -81.0851 
-1.49527e-05      2.32594     -62.3332 
0.000567585      6.07100     -1.03820 
-4.46998e-05      5.37372      24.7528 
8.91764e-05      6.69247      25.1100 
2.95960e-05      3.67967      169.667 
0.000161630      7.42340     -40.7938 
7.42034e-05      3.13869      144.335 
0.000723160      4.09078     -178.879 
-0.000251268      7.28330     -33.4064 
-0.000220304      6.11471     -41.3534 
-2.94175e-05      3.41270     -103.385 
0.000131569      3.87683      176.599 
7.35666e-05      4.40732      38.2741 
-2.96711e-05      1.61419      146.113 
-4.44698e-05      3.42300     -169.905 
-0.000189299      4.34278      19.6449 
-7.37572e-05      2.33944     -62.2301 
0.000205116      4.96505      51.9530 
-1.48726e-05      3.87505      134.582 
7.37462e-05      3.39178     -49.7835 
2.95991e-05      5.66613     -69.0060 
0.000159184      7.83534     -47.5345 
0.00149998      4.88250      147.547 
2.95750e-05      4.54010     -138.304 
-0.000680475      6.17913     -120.757 
-4.40017e-05      4.18742      119.626 
0.000102458      8.06958     -41.4331 
8.79784e-05      6.06056     -83.3675 
-7.32476e-05      5.31832      31.3887 
-7.23247e-05      4.74723     -120.508 
-4.39638e-05      3.88336     -129.881 
-1.47774e-05      5.38699      24.8049 
0.000161016      6.79478      27.8096 
-0.000508781      6.14024     -130.773 
0.00138920      6.44792      18.6316 
2.93951e-05      5.13609     -15.4704 
1.47539e-05      7.84488     -46.6012 
-0.000102281      4.44559     -157.935 
0.000190079      6.70153      25.0737 
0.000244911      6.95613     -36.5240 
-0.000174653      5.38281      24.7082 
0.000203677      3.14453      144.187 
-0.000333714      5.75022     -114.559 
0.000259416      6.77585     -124.112 
-0.000130194      3.30619     -103.112 
1.47080e-05      6.63388     -46.0994 
-4.38750e-05      2.06235     -151.944 
-0.000115615      5.29831     -136.606 
1.47092e-05      5.18348     -10.8981 
-5.80754e-05      3.62571      30.3133 
-4.38606e-05      3.43460     -169.770 
1.46737e-05      5.55317      136.678 
1.46643e-05      6.48007     -22.8851 
-1.46557e-05      3.52460      64.4528 
0.000159273      6.64082     -46.0372 
0.000130684      4.54582      15.0451 
2.91690e-05      5.62885     -45.5758 
-0.000276137      7.27496     -33.4498 
0.000405674      3.49744      152.776 
-2.90206e-05      3.70163     -50.5908 
1.46209e-05      7.85175     -46.5482 
-4.34297e-05      2.18325      145.072 
-1.46181e-05      1.60590      145.914 
-1.46117e-05      3.99061      164.745 
-2.90805e-05      5.94226     -21.7298 
-2.90823e-05      5.20531     -41.8072 
-4.34575e-05      4.87016     -89.5294 
7.25164e-05      3.38534     -49.9127 
-0.000129740      2.35296     -62.1280 
1.45644e-05      3.51241     -20.4988 
0.000259173      5.33835      47.8851 
2.90334e-05      5.14573     -15.4407 
-1.45466e-05      1.96163      50.7928 
4.33200e-05      4.30725      72.1540 
-1.45413e-05      3.41797     -149.007 
7.22008e-05      5.14534     -28.3083 
1.45371e-05      2.76134      78.9342 
0.000158426      4.30074     -21.5540 
7.23216e-05      5.59004      37.0749 
-2.89056e-05      1.60031      146.211 
2.89655e-05      6.05941     -83.4614 
0.000130043      6.80362      27.7703 
1.45076e-05      6.77024     -124.042 
1.44875e-05      4.00476      80.5142 
1.44796e-05      4.13769      112.599 
-2.89066e-05      3.44444     -169.799 
-1.44835e-05      5.24061     -90.8747 
-0.000114911      5.30978      31.4449 
-8.65182e-05      6.17403     -120.677 
1.44628e-05      5.30088     -95.0868 
0.000861377      6.70445      24.3096 
-2.89032e-05      2.07118     -152.074 
8.64410e-05      6.32529     -35.0217 
0.000100604      5.96806     -2.97747 
0.000330055      8.07708     -41.3861 
-0.000115032      4.98141     -145.800 
-0.000186726      4.00026      164.783 
-0.000789961      7.08156     -30.3671 
-5.76309e-05      3.24785      160.951 
1.44602e-05      5.66400     -68.7809 
-0.000129139      4.16693      141.920 
-0.000115105      6.12222     -41.2916 
7.19076e-05      7.41583     -40.8443 
-0.000157825      3.77012      179.544 
2.88615e-05      6.86477     -40.6285 
1.44430e-05      3.26377      17.6577 
-4.31306e-05      5.93856     -21.6402 
0.000100505      3.58811     -5.75826 
-0.000143509      4.43633     -157.887 
0.000100595      6.07049     -83.3784 
-2.87651e-05      3.89104     -129.787 
1.44185e-05      3.52178     -20.4418 
-0.000129272      5.99954     -24.9419 
4.30496e-05      6.71059      25.0375 
-4.31936e-05      7.26662     -33.4933 
8.61141e-05      5.23589     -5.69971 
1.44111e-05      5.15803     -15.5182 
0.000114890      3.37891     -50.0425 
-0.000100672      7.12492      35.2292 
-2.87408e-05      4.20602      119.796 
-2.87361e-05      7.84863     -41.5911 
-0.000530956      7.26381     -33.6026 
7.18515e-05      4.95889      52.0439 
4.30453e-05      6.71075     -121.037 
-2.87586e-05      5.94142     -125.616 
0.000229312      5.57219      37.3429 
2.87542e-05      5.49722     -27.6372 
0.00115282      6.80829      27.8448 
0.000114810      4.55548      15.0124 
-0.000157788      3.62933      30.0973 
-2.87383e-05      3.45607     -169.665 
1.43872e-05      2.65966      141.105 
2.87662e-05      6.85826     -40.5650 
-8.60667e-05      6.31468     -125.200 
-0.000515652      5.74112     -114.601 
0.000100337      3.13643      144.080 
0.000229105      5.14060     -28.2102 
4.30717e-05      2.66745      141.240 
-1.43629e-05      2.07589     -151.830 
0.00204756      6.43218      18.7730 
-0.000343740      6.14678     -130.844 
-0.000272141      6.11582     -99.0311 
-1.43481e-05      5.39607      24.7603 
0.000272845      3.50634      152.850 
5.73311e-05      6.85066     -40.6194 
-0.000287695      7.25548     -33.6463 
4.30003e-05      4.55422     -138.293 
-0.000372472      7.13309      35.1829 
1.43475e-05      5.16767     -15.4885 
1.43512e-05      5.30177     -95.1944 
-7.15871e-05      5.39189      24.6638 
1.43324e-05      4.04969      86.0353 
-0.000157403      2.76134      168.934 
7.15465e-05      4.57577     -150.690 
-0.000158205      7.03073     -54.7276 
-0.000145560      2.38950     -40.7573 
-7.15325e-05      3.23224      160.668 
-4.29236e-05      5.93795     -125.403 
2.86231e-05      3.90438     -64.0256 
2.86484e-05      5.51072     -27.6811 
0.000214951      2.68151      141.207 
-0.000200842      4.33674      19.8138 
1.43258e-05      5.65831     -68.6499 
2.86224e-05      3.88623      176.755 
0.000114639      6.32776     -34.8956 
2.86249e-05      4.95101      51.9728 
-8.61961e-05      3.46591     -169.695 
2.86191e-05      5.15414     -28.2556 
-1.43163e-05      3.89873     -129.693 
0.000329682      6.08100     -1.03649 
4.29007e-05      6.64777     -45.9752 
0.000214813      4.56773      15.1011 
0.000186887      4.30639     -21.3814 
-4.29062e-05      2.75770     -76.3669 
2.85936e-05      4.05040      85.8942 
-2.86103e-05      2.75944      169.138 
-0.000128814      6.12974     -41.2299 
1.42995e-05      3.89062     -21.0904 
5.71998e-05      5.29273     -95.3120 
-0.000348175      4.28402      52.9696 
-0.000157645      3.98560      123.331 
-0.000143194      4.97314     -145.735 
5.72403e-05      6.84308     -40.6739 
1.43051e-05      3.60378     -81.0604 
1.42971e-05      7.40827     -40.8949 
4.31161e-05      3.58712     -5.59934 
-0.000143021      5.38658     -138.914 
2.86073e-05      3.37249     -50.1727 
1.43008e-05      5.17731     -15.4589 
0.000258933      4.94486      52.0640 
4.28900e-05      6.71965      25.0014 
-7.15486e-05      2.09459     -171.212 
-2.85988e-05      3.90643     -129.599 
-1.43025e-05      4.11394      92.5077 
1.43025e-05      4.11060     -179.024 
4.28979e-05      6.08159     -83.2957 
7.15890e-05      5.71126      35.6660 
-1.42869e-05      3.30394     -102.943 
-0.000157813      5.78364      9.15288 
5.72196e-05      4.08178      43.3124 
4.28858e-05      6.39860      22.9987 
-4.29162e-05      3.22684      167.471 
8.59354e-05      3.35841     -50.1944 
-1.43017e-05      6.06805     -30.2836 
2.86202e-05      3.45419      47.5813 
-0.00143258      5.85491     -134.723 
4.29219e-05      4.05112      85.7532 
2.86063e-05      5.23490     -5.59080 
0.00313523      6.70034      24.2316 
-0.000172838      4.00991      164.820 
4.30071e-05      6.94809     -36.5730 
-4.29153e-05      6.13922     -130.905 
-2.86744e-05      4.75232     -120.612 
-0.000129495      3.31368     -102.904 
2.86385e-05      4.29773      72.1131 
-1.43037e-05      7.84115     -41.6396 
1.42964e-05      5.66196     -68.5556 
8.63556e-05      5.09802     -9.36994 
-1.42949e-05      3.23396     -177.164 
-4.29613e-05      6.06447     -30.4129 
8.66140e-05      3.14231      143.932 
-0.000402482      6.14577     -130.975 
-0.000114910      3.22281      160.609 
-0.000158345      5.93455     -125.190 
5.74617e-05      6.66191     -45.9731 
0.000115102      6.71591     -121.110 
0.000172452      6.40781      22.9638 
-0.000200871      5.39412     -138.984 
-8.60660e-05      3.77021      179.392 
-5.74815e-05      1.58928      146.810 
-0.000172532      4.17940      76.8615 
0.000215404      5.14942     -28.1576 
0.00123241      6.73357      24.8524 
2.86858e-05      5.29367     -95.4198 
2.87294e-05      4.58450     -150.751 
-0.000129363      2.75153      168.894 
1.43231e-05      6.60097     -56.1173 
-4.30076e-05      5.40515      24.7159 
1.43160e-05      5.19659     -15.4002 
-1.43204e-05      5.30125      31.5013 
-0.00107935      5.66626     -136.645 
1.43195e-05      4.56169     -138.377 
-1.43138e-05      3.90779     -129.393 
1.43225e-05      5.96858     -3.07333 
0.000411807      6.77853     -123.995 
-2.87021e-05      7.60016     -36.4930 
-1.43343e-05      5.92927     -21.6758 
-4.30639e-05      2.75036     -76.1153 
-5.74829e-05      3.21708      167.433 
0.000116064      5.18957     -100.660 
-0.000144034      7.30836     -33.2769 
1.43407e-05      4.07451      43.4089 
-2.86966e-05      3.35172     -175.208 
2.87229e-05      6.83550     -40.7286 
0.000202642      5.34524      40.9036 
-1.43370e-05      3.91414     -129.506 
-0.000333086      5.73697     -114.510 
1.43307e-05      6.08043     -83.3893 
0.00107668      6.44165      18.7443 
0.000268322      5.56424      37.4054 
1.43566e-05      4.05188      85.6121 
0.000144516      4.06764      43.3065 
2.87731e-05      5.51957     -27.6328 
0.000145175      8.09119     -41.3924 
-0.000101633      6.67835      31.4052 
8.68754e-05      3.03659     -3.77642 
-1.43745e-05      4.16077      142.028 
-2.88301e-05      2.17754      145.288 
-0.000452988      7.01674     -29.4512 
-0.000306130      6.11425     -98.9385 
1.43720e-05      7.82859     -47.5885 
-0.000203116      3.58645      171.825 
2.88208e-05      7.40072     -40.9456 
-1.43937e-05      5.40098      24.6195 
0.000276972      2.68931      141.340 
-2.89977e-05      6.31710     -125.074 
5.76540e-05      4.57739      15.0685 
0.000466966      4.85585     -148.045 
8.69538e-05      5.70314      35.7245 
-0.000218437      4.97052     -145.575 
-7.28890e-05      6.13726     -41.1684 
-0.000274885      5.40167     -139.054 
2.88313e-05      4.05265      85.4712 
-0.000350836      7.14127      35.1366 
0.000101760      3.35201     -50.3257 
2.88258e-05      3.46094      47.4590 
-1.44038e-05      5.29273      31.5579 
0.000262514      4.08099     -178.736 
1.43959e-05      5.65632     -68.4243 
1.44083e-05      3.90928     -20.9849 
-1.43913e-05      3.91552     -129.300 
-0.000160818      3.76021      179.390 
-2.88839e-05      5.41424      24.6717 
-1.44125e-05      3.34093     -175.365 
0.000248433      6.06083    -0.945390 
2.89325e-05      2.39777     -115.176 
2.88836e-05      6.94214     -36.5068 
2.89068e-05      5.29462     -95.5275 
-0.000180886      3.63299      29.8818 
-0.000615866      5.79511      9.23476 
0.000102623      6.33348     -34.9698 
0.000488678      5.15824     -28.1052 
-4.36303e-05      3.92186     -129.413 
-0.000101898      3.98011      123.211 
-7.33145e-05      2.75278     -75.9133 
4.34782e-05      3.84884     -15.9863 
0.000551982      4.66897      150.910 
5.83785e-05      6.82792     -40.7833 
0.000175427      4.58000      15.1893 
-0.000482528      6.15233     -131.046 
-7.29057e-05      3.20732      167.394 
-0.000131524      2.74171      168.854 
0.000190600      6.41702      22.9289 
-4.35475e-05      3.21338      160.550 
-0.000117067      4.34014      19.9380 
0.00232561      4.87714      147.646 
-2.90948e-05      5.41007      24.5754 
-0.000250788      4.17714      76.9951 
7.28499e-05      5.67060     -77.6794 
-1.45063e-05      2.12009     -152.468 
-0.000714534      7.08662     -30.4369 
1.45102e-05      5.66001     -68.3302 
1.45089e-05      4.05346      85.3303 
0.000103768      6.93410     -36.5559 
1.45208e-05      5.22551     -15.3128 
-8.80555e-05      6.82907     -116.903 
1.45566e-05      5.28663     -95.7537 
-1.45537e-05      3.32343     -102.865 
-2.91758e-05      5.93698     -125.055 
-0.000487270      5.40922     -139.123 
0.000135013      6.72108     -121.183 
1.45728e-05      4.05428      85.1894 
-4.40876e-05      1.58092      146.611 
5.90051e-05      4.35660      58.1340 
-0.00216578      7.42566     -34.6317 
-2.92415e-05      2.12897     -152.592 
0.000193543      3.86122     -16.0881 
-0.000210413      7.23609     -33.8438 
2.92916e-05      1.13225      54.3447 
-7.35392e-05      3.32122     -102.697 
-1.46096e-05      5.42333      24.6276 
-2.92627e-05      3.20730      160.322 
2.94455e-05      7.82185     -47.6425 
4.43713e-05      3.57716     -5.61497 
1.46081e-05      7.39317     -40.9964 
0.000133376      4.06037      43.4033 
-7.36073e-05      7.72286     -38.9031 
0.000181673      6.40700     -33.2188 
0.000194597      4.93871      52.1555 
2.94373e-05      5.65442     -68.1986 
1.46616e-05      4.05513      85.0486 
1.46585e-05      5.28765     -95.8615 
-0.000531023      5.72787     -114.552 
-0.000179398      3.57655      171.802 
-2.94320e-05      5.41917      24.5315 
-1.46784e-05      6.05585     -30.4608 
2.95307e-05      5.08653     -9.27714 
0.000103627      5.66847     -77.7782 
0.000571100      6.82180      27.8798 
0.000163914      5.35280      40.8335 
-0.000196937      4.01254      164.682 
-2.96641e-05      7.02496     -54.7942 
0.000384623      5.10443      139.131 
-6.13489e-05      5.93124     -124.976 
-2.95267e-05      3.97464      123.090 
0.000116397      6.18568     -108.962 
0.000399663      1.28445     -16.7420 
-1.47144e-05      7.35813     -123.863 
-5.90680e-05      4.70307      139.570 
-9.00736e-05      3.92959     -129.320 
0.000119572      5.69502      35.7833 
-9.03583e-05      7.22779     -33.8879 
-7.44011e-05      3.19756      167.355 
4.45174e-05      5.27777     -24.0396 
2.95288e-05      5.28868     -95.9693 
-0.000136521      3.19789      160.262 
2.95956e-05      3.02662     -3.78889 
1.47607e-05      4.05601      84.9079 
2.96657e-05      3.34564     -50.4576 
-1.47965e-05      5.63568      45.2157 
-7.47827e-05      2.73190      168.813 
-0.000556273      6.15890     -131.116 
-0.000167034      4.96228     -145.509 
0.000134929      4.58965      15.1566 
-1.48299e-05      3.98303      123.012 
-0.000954077      7.22715     -32.2827 
0.000211893      2.70337      141.307 
1.48415e-05      4.30275     -21.2574 
-2.98384e-05      2.13785     -152.716 
-0.00130667      7.70857     -37.5686 
-2.98332e-05      4.16866      142.113 
1.48476e-05      5.28973     -96.0770 
0.000152095      4.07123     -178.593 
-0.000137306      7.71508     -38.9498 
0.000169230      5.52844     -27.5848 
9.08067e-05      5.39200     -53.0663 
1.48701e-05      4.05691      84.7672 
-0.000135373      4.69547      139.491 
-4.48577e-05      3.33098     -102.659 
0.000336728      6.04067    -0.853682 
-0.000167875      4.33074      19.9831 
-0.000307380      6.11271     -98.8459 
-9.09133e-05      5.64278      45.2872 
2.98739e-05      6.82035     -40.8382 
6.11495e-05      5.19756     -100.532 
0.000122215      3.03595     -3.58811 
0.000105620      6.42623      22.8942 
1.49312e-05      5.65814     -68.1046 
4.52972e-05      8.09870     -41.3457 
-4.50883e-05      3.97759      122.891 
-0.00102938      7.14945      35.0905 
1.49404e-05      5.28305     -96.4121 
3.00427e-05      4.05783      84.6266 
-1.49852e-05      3.22493     -154.468 
-3.01720e-05      5.42827      24.4876 
9.85664e-05      3.14014      143.677 
-0.00134152      7.01183     -29.3800 
-0.000313621      6.18425     -120.837 
-0.00131519      5.67313     -136.571 
-9.12044e-05      3.75033      179.236 
-9.15951e-05      4.28600      53.1568 
1.50174e-05      5.28417     -96.5198 
0.000106055      5.66637     -77.8770 
-0.00120495      5.41679     -139.192 
6.24892e-05      4.18244     -170.087 
7.57268e-05      5.28209     -98.0534 
4.54126e-05      6.79113     -40.9399 
-3.04850e-05      6.14479     -41.1070 
-0.000107716      4.17043      142.306 
-6.08319e-05      1.74184      158.443 
3.04965e-05      3.32521     -50.6136 
3.03997e-05      4.08747     -44.2070 
-6.15801e-05      5.13401     -37.0038 
4.59660e-05      5.65261     -67.9727 
3.03616e-05      4.36617      37.3686 
-3.08053e-05      6.68357      31.4783 
-0.000171654      3.32880     -102.491 
-4.56611e-05      3.18781      167.315 
0.000249410      6.81713      27.8055 
6.16573e-05      5.28691     -23.9955 
0.000172958      4.05350      43.3006 
-1.51690e-05      4.18465      77.1593 
-1.51784e-05      3.99362      39.3096 
0.000233533      5.36037      40.7636 
-1.51796e-05      6.31383     -124.873 
-1.51875e-05      2.38193     -40.9144 
3.04664e-05      4.05878      84.4861 
-0.000354323      7.13961      31.3078 
-4.61686e-05      2.14674     -152.838 
0.000833033      4.59228      15.2770 
-1.52282e-05      3.97217      122.770 
-3.05714e-05      3.24777     -154.855 
0.000221867      6.77295     -123.925 
4.63165e-05      6.33922     -35.0438 
-0.000319069      4.18244      77.2929 
-6.16547e-05      2.72209      168.773 
-0.000381692      3.55820      171.597 
-9.29306e-05      3.98589      39.4007 
1.52804e-05      4.31208     -21.2092 
0.000155654      3.86400     -16.2305 
0.000271796      5.28070     -97.9460 
0.000492484      2.69557      141.174 
7.69107e-05      6.44078      22.7430 
-0.000139613      4.68787      139.412 
-0.000529490      6.16548     -131.186 
9.29339e-05      5.16706     -28.0529 
0.000125419      6.75438     -41.0981 
-4.62512e-05      3.98058      122.692 
1.53588e-05      4.35822      37.4484 
-0.00179940      7.09169     -30.5065 
9.33426e-05      5.66427     -77.9759 
4.64930e-05      4.93697      51.9927 
-4.66831e-05      6.31064     -124.672 
-6.24287e-05      6.41413      38.9249 
-6.23130e-05      3.18562      167.491 
3.10320e-05      4.05975      84.3456 
3.12032e-05      7.80839     -47.7510 
9.41122e-05      3.40129      6.41460 
1.54696e-05      3.56721     -5.63068 
-6.25202e-05      2.96547      93.4799 
1.54648e-05      5.68691      35.8422 
1.54732e-05      6.92607     -36.6052 
1.54702e-05      4.28822      72.0721 
0.000676386      4.66024      150.850 
-0.000143569      1.74554      158.138 
4.67607e-05      4.36010      37.2641 
-1.55258e-05      3.25682     -154.930 
9.39768e-05      6.45001      22.7087 
-1.55450e-05      5.43737      24.4440 
6.29053e-05      6.72626     -121.256 
-0.00161746      5.86202     -134.654 
1.55626e-05      4.08031     -44.3049 
-6.30094e-05      3.97519      122.571 
9.56039e-05      4.66799      48.3868 
-7.91738e-05      2.61964     -140.110 
0.000717493      6.83064      27.8406 
-0.000145194      3.74033      179.234 
0.000127626      2.34798      82.9052 
-6.33592e-05      5.63575      45.3594 
1.56530e-05      1.14039      54.6375 
-3.14761e-05      2.71229      168.731 
4.77814e-05      6.92012     -36.5387 
-1.57055e-05      5.30352     -80.4489 
0.000293833      5.15353     -28.0071 
-1.57220e-05      3.28892     -155.383 
0.000771926      6.56812      21.5260 
3.15994e-05      6.44380     -46.4462 
6.40742e-05      4.09099     -178.739 
-0.000321687      4.00556      164.507 
0.000182150      4.93082      52.0843 
-0.000149053      3.94367     -129.341 
1.57584e-05      7.37151     -41.0397 
1.57593e-05      5.38600     -53.1514 
-6.42212e-05      4.29200      53.0500 
-4.77693e-05      5.44648      24.4004 
7.99224e-05      4.35215      37.3438 
3.17631e-05      4.06075      84.2052 
3.17520e-05      5.29605     -23.9515 
-4.78182e-05      5.29200     -80.5377 
-0.000153567      2.15564     -152.959 
6.38370e-05      7.19292     -124.751 
3.17852e-05      5.66220     -78.0749 
3.18459e-05      5.92301     -18.7103 
-0.000183409      4.95972     -145.349 
-3.18325e-05      6.40488      39.1069 
-0.000180557      3.97817      39.4921 
-3.18486e-05      2.71426      168.524 
-0.000485782      6.17207     -131.256 
1.58938e-05      3.04532     -3.38856 
-0.000691588      5.80498      9.21893 
1.59041e-05      5.64711     -67.8406 
1.59170e-05      6.33679     -35.1698 
-1.59092e-05      3.29801     -155.455 
-0.000180366      4.17225      142.498 
0.000129185      6.02053    -0.761361 
0.000199109      7.10417     -121.766 
-0.000221160      2.96609      93.6727 
-0.000131529      4.32478      20.1529 
-4.80756e-05      3.17586      167.452 
0.000113123      6.45923      22.6745 
-0.000278654      5.72372     -114.461 
-6.44933e-05      4.68028      139.332 
4.97912e-05      6.41537     -33.1699 
-0.000330875      3.39690      128.186 
0.000130780      6.72292     -121.373 
-3.21840e-05      7.22507     -33.9980 
-9.97670e-05      3.18848      160.201 
9.78111e-05      3.87360     -16.1892 
3.21436e-05      6.42277     -46.5141 
0.000541434      5.36795      40.6939 
-0.000304571      6.11118     -98.7533 
8.14845e-05      3.39136      6.43348 
-1.60788e-05      3.32122     -155.827 
-9.83134e-05      6.41264      39.0505 
-4.87453e-05      3.96981      122.449 
6.55155e-05      5.10549      45.4761 
4.89022e-05      4.06177      84.0648 
8.36286e-05      3.03534     -3.39971 
0.000132398      5.67198     -78.0957 
0.000215884      7.18722     -124.685 
3.24469e-05      4.76892     -137.039 
1.61443e-05      4.18073     -170.222 
6.53087e-05      6.72521     -41.2020 
-9.86760e-05      2.70446      168.482 
-8.21133e-05      5.29037     -80.6445 
4.90238e-05      6.41589     -46.5789 
-0.000289648      3.33642     -102.287 
0.000221608      5.11098      139.046 
-1.62389e-05      3.16830      167.236 
4.97516e-05      6.34497     -35.1178 
1.62433e-05      4.30847     -21.0852 
-1.62614e-05      6.30187     -124.396 
9.97770e-05      4.44245     -148.063 
8.37878e-05      5.15450     -20.4390 
1.62692e-05      7.80167     -47.8054 
8.32718e-05      4.54965      154.899 
-4.97525e-05      5.45558      24.3570 
-0.000137748      5.64287      45.4308 
-1.63408e-05      6.93397      33.2317 
-3.28733e-05      3.16610      167.412 
3.29659e-05      4.34420      37.4238 
-1.64063e-05      3.33035     -155.898 
4.95617e-05      7.10094     -121.877 
1.64332e-05      5.31838     -23.9625 
-5.01538e-05      5.83455     -121.402 
0.000137254      2.33932      82.6319 
-0.00199635      5.68001     -136.498 
1.64632e-05      6.47386      22.5246 
-1.64596e-05      7.70731     -38.9965 
8.47629e-05      1.27201     -16.4404 
-0.000155795      7.23337     -33.9537 
0.000422379      6.03053    -0.760099 
-8.36309e-05      4.67270      139.252 
-0.000335530      6.17117     -131.387 
-0.000134482      4.66172     -109.290 
-1.65152e-05      7.01920     -54.8609 
0.000232421      6.26171      12.6380 
-6.70505e-05      6.20561      10.5856 
0.000186601      6.48309      22.4907 
-1.65467e-05      2.80418     -146.933 
5.05533e-05      4.77574     -136.952 
5.00714e-05      6.40903     -46.6438 
1.65711e-05      8.12783     -41.2589 
-6.69921e-05      3.15854      167.196 
-1.66332e-05      3.33948     -155.968 
-1.66267e-05      3.97825      122.372 
0.000142723      7.06142      30.0871 
0.000106776      4.86115     -147.945 
0.000176393      6.73274     -41.1459 
0.000138051      3.39249      6.60130 
6.86829e-05      4.67384      48.1221 
-0.000154010      3.54831      171.573 
3.35525e-05      4.04623      43.3977 
0.000973794      6.41649      18.9150 
-3.38522e-05      6.29886     -124.195 
0.000138124      3.88600     -16.2897 
5.07897e-05      4.34609      37.2390 
5.18438e-05      4.06282      83.9246 
-1.67785e-05      3.73034      179.232 
-1.67856e-05      5.42436     -139.261 
6.82623e-05      5.25381      50.9485 
8.73639e-05      6.77568     -123.807 
0.000177540      5.10562      45.6348 
-8.61343e-05      5.28875     -80.7514 
-0.000177082      3.97291      122.250 
-3.38456e-05      6.40344      39.2327 
3.42155e-05      2.34651      156.385 
-6.83020e-05      3.73048      179.078 
1.69009e-05      6.24440     -102.768 
0.000156634      6.72813     -121.446 
0.000349861      6.82598      27.7664 
-0.000304009      4.18025      77.4266 
3.41102e-05      6.40216     -46.7089 
-1.69402e-05      3.34861     -156.038 
-0.000140247      2.69466      168.440 
-7.16331e-05      4.29005      52.8630 
1.69483e-05      6.91208     -36.5881 
3.48214e-05      3.48855      152.700 
-0.000316481      4.17412      142.691 
-0.000208972      5.71878     -114.593 
-0.000950004      5.42543     -139.410 
-5.12139e-05      6.17867     -131.325 
-0.000361082      1.65124     -61.4172 
1.70330e-05      2.57280      16.2513 
-8.63738e-05      3.14879      167.155 
-0.000176050      3.96548      149.879 
3.46751e-05      5.32752     -23.9188 
-0.000670792      6.17778     -131.456 
-0.000160450      4.31539      20.1986 
-0.000104661      4.66513      139.172 
-1.70893e-05      2.80129     -146.650 
-8.74278e-05      6.41119      39.1762 
0.000127593      6.35072     -35.1916 
-0.000233231      3.97045      39.5839 
0.000343921      5.87640     -106.307 
0.000161911      5.66993     -78.1946 
-0.000123634      6.19578      10.6026 
0.000319287      7.18154     -124.619 
1.71502e-05      4.04665      43.1976 
-1.71742e-05      3.35775     -156.107 
0.000199502      4.45418     -148.308 
0.000358052      4.87180      147.745 
0.000235905      5.14471     -28.0594 
1.72516e-05      2.58240      16.1892 
0.000164961      4.03937      43.2947 
-0.000362840      3.40309      128.318 
0.000827418      6.83949      27.8015 
-0.000141395      4.66503     -109.406 
9.01990e-05      4.55390      154.785 
0.000164984      5.27504     -98.2837 
1.73108e-05      6.24220     -102.678 
8.82054e-05      4.33813      37.3190 
5.24207e-05      3.01887      57.9946 
3.49816e-05      6.38118     -46.7780 
-0.000312176      3.53990      171.389 
0.000995006      6.69624      24.1536 
-0.000274635      3.72048      179.076 
-0.000239743      7.13628      31.4181 
-3.50918e-05      3.36690     -156.176 
0.000163134      5.26011      50.8639 
-3.53540e-05      2.90765      172.093 
3.52497e-05      4.76844     -136.870 
-1.74729e-05      5.46470      24.3138 
0.000233950      6.49233      22.4569 
0.000220764      7.09891     -121.697 
0.000109893      2.57002      16.0373 
3.52614e-05      5.15900     -107.135 
-1.75623e-05      7.13107      31.3496 
0.000572562      6.42272      18.8017 
0.000389011      4.66512      150.743 
-0.000183922      2.59156      91.9902 
-8.94901e-05      3.13904      167.115 
-0.000109783      4.95149     -145.283 
0.000500020      6.72938      24.7751 
0.000110892      2.68779      141.041 
1.77488e-05      6.41829     -33.0463 
5.39545e-05      6.37433     -46.8435 
1.77706e-05      5.16387     -20.4002 
0.000221956      4.73001      59.3686 
9.10453e-05      5.16196     -107.241 
0.000241777      6.73007     -121.635 
7.30505e-05      3.02419      57.8340 
-0.000279327      5.72295     -114.684 
-1.79748e-05      3.37605     -156.244 
-9.16006e-05      4.65756      139.092 
-5.51518e-05      5.28715     -80.8584 
-0.000185961      6.40204      39.3587 
1.79909e-05      4.45094     -148.131 
-0.000186583      6.11658     -98.4613 
1.81009e-05      4.78257     -136.864 
1.81072e-05      3.89560     -16.2484 
-3.64667e-05      3.38120     -156.468 
-1.81407e-05      2.68486      168.397 
1.81547e-05      6.59873     -113.962 
1.81546e-05      3.03477     -3.21125 
5.58310e-05      5.17674     -20.4654 
-0.000149870      3.34619     -102.250 
3.70365e-05      2.33735      156.286 
3.68665e-05      4.67309      47.9490 
-0.000657098      6.18441     -131.526 
-5.50702e-05      4.66230     -109.679 
5.55593e-05      4.33018      37.3992 
-0.000131018      3.97413      149.951 
-0.000281844      4.16807      142.800 
-7.40329e-05      3.12930      167.074 
-0.000112639      7.23067     -34.0637 
7.50426e-05      3.90800     -16.3482 
5.56312e-05      6.36750     -46.9092 
3.73941e-05      5.33667     -23.8753 
5.66223e-05      4.77528     -136.782 
0.000188698      7.17586     -124.554 
-3.76088e-05      2.91755      172.120 
-9.44761e-05      6.17798      10.7279 
0.000112554      4.59492      15.3973 
7.50871e-05      5.79121     -45.0700 
-9.43007e-05      2.68689      168.188 
0.000169896      6.40703      18.9440 
0.000227311      6.50158      22.4233 
3.74936e-05      3.38256      6.62078 
-7.55417e-05      3.39037     -156.535 
-0.000132839      4.66567     -109.794 
3.78747e-05      2.33805      82.8750 
3.78193e-05      3.02478     -3.22186 
5.68405e-05      6.08217     -43.9342 
5.68469e-05      4.63534      39.0459 
7.59026e-05      5.16493     -107.347 
7.63386e-05      5.03362      47.8182 
-5.69833e-05      4.30601      20.2446 
-5.72587e-05      4.65001      139.011 
5.72796e-05      3.01573      57.7328 
-3.81449e-05      4.01520      164.545 
-1.88953e-05      2.16456     -153.080 
-5.73252e-05      3.96275      39.6760 
-9.56656e-05      5.88501     -94.0926 
-3.81014e-05      3.11955      167.033 
3.83299e-05      6.36067     -46.9749 
-0.000172521      5.41893     -139.490 
5.75217e-05      6.04053    -0.758840 
3.83038e-05      6.62857     -117.493 
3.82187e-05      5.25529      51.1018 
-1.91316e-05      4.17809      77.5604 
-3.84316e-05      3.41094      128.214 
-1.91563e-05      2.95611      93.6851 
-3.85234e-05      6.17668     -38.5584 
1.92067e-05      6.71863     -41.1378 
1.92183e-05      6.90406     -36.6375 
1.92462e-05      5.66789     -78.2936 
1.92563e-05      6.29334     -20.3642 
-1.92544e-05      7.23896     -34.0193 
1.92644e-05      6.08192     -44.0674 
-1.93085e-05      3.96758      122.128 
1.93028e-05      5.94196     -18.6484 
1.93542e-05      4.67911      47.6851 
