! Center RA: 12 21 31.69053,  Dec: +28 13 58.50012 (2000.0)
! Established model.
! Flux (Jy) Radius (mas)  Theta (deg)  Major (mas)  Axial ratio   Phi (deg) T \
! Freq (Hz)     SpecIndex
 0.0820655    0.0999999     -126.870 
 0.0658334     0.107703     -111.801 
 0.0406626    0.0894426     -116.565 
 0.0199031    0.0848528     -135.000 
 0.0391684    0.0721111     -146.310 
0.00631292     0.141421     -98.1301 
 0.0108898     0.160000     -90.0000 
 0.0224549     0.161245     -97.1250 
 0.0186976    0.0565685     -135.000 
 0.0292980     0.178885     -116.565 
 0.0128065    0.0447214     -116.565 
 0.0617431     0.212603      131.186 
0.00110624     0.226274      135.000 
 0.0550778      3.24006      96.3792 
 0.0187534      3.21801      96.0649 
0.00311471      3.28445      96.9952 
0.000934794      3.19812      96.1028 
-0.0125637      6.47744      68.8228 
-0.00677212      10.9436     -35.4038 
-0.00903454      8.25363      82.3411 
-0.00437885      9.77231      112.629 
0.00885586      5.37669     -43.1913 
-0.0112137      12.0126      117.034 
-0.00214135      5.40081      39.2894 
-0.00833991      7.08802      73.6105 
0.00106743      5.39807     -39.5881 
0.00205483      5.41084     -39.7513 
-0.00639751      2.55476     -170.538 
0.00100473      1.99289      31.4568 
0.00457356      4.95774     -151.574 
-0.00981715      9.51483     -173.846 
0.00266714      5.42623     -39.6163 
-0.00423868      9.79077      112.584 
0.000958673      1.98252      30.9638 
-0.00431170      10.9157     -35.3790 
0.00430070      3.39158     -155.248 
0.000903225      1.99970      30.6689 
-0.000889074      5.72325      39.7543 
0.00763257      10.7146      85.3962 
 0.0358045      10.7153     -17.4880 
0.00163393      8.54599     -50.9842 
0.000841506      15.1645      51.2104 
-0.00317740      11.0092     -32.1599 
0.00158761      11.8414      144.001 
0.00385599      3.40000     -154.942 
-0.00496102      6.47024      68.9879 
-0.00280711      2.57449     -170.611 
0.00444044      10.2215     -157.449 
0.00791358      8.66519      149.943 
0.00275729      5.37587     -43.4926 
0.000755685      4.94016     -151.464 
-0.00856028      10.9923     -32.2153 
-0.00210876      10.9041     -35.2933 
0.00632177      11.8134      144.023 
0.00683455      3.38189     -154.799 
0.00251192      8.56154     -51.0685 
-0.000704237      4.08965      144.755 
0.00253306      4.94975     -151.260 
-0.00258055      6.46746     -9.43319 
0.00365687      10.2405     -162.379 
0.00251045      10.6000     -148.109 
-0.00715540      7.57852     -119.745 
-0.000659012      7.10721      73.6560 
-0.00186264      8.21718     -23.0704 
-0.000649500      4.10600      144.917 
-0.00390868      11.9947      117.078 
0.00434568      10.6946      85.3876 
-0.00238033      10.8926     -35.2075 
-0.00600942      9.49712     -173.713 
0.00239938      7.17824     -95.9171 
0.000631153      1.88743      25.7505 
0.00399778      10.6963      85.2808 
0.00121447      8.60349     -56.5685 
-0.00119899      7.10076      133.859 
0.00373709      10.2213    -0.896925 
-0.000604849      2.33238     -112.166 
-0.00321483      6.48179      69.2163 
0.00836954      11.9940      147.184 
0.000584488      15.1520      51.2693 
-0.000583105      9.37846     -157.427 
0.00573050      10.5894     -148.201 
-0.00443155      9.36000     -157.380 
-0.00254435      7.09732     -75.1414 
-0.00106451      9.80924      112.539 
0.00110289      8.59698     -49.5288 
0.00106850      9.09604      52.9537 
0.00203791      8.59249     -56.6798 
0.00349616      7.17621     -95.7583 
0.00105376      12.4837      118.413 
-0.000549185      6.11732      132.085 
-0.00108866      6.44773     -9.46232 
0.000541035      1.86944      26.0168 
-0.00201866      10.8811     -35.1214 
0.00104576      10.9772      113.062 
-0.000529259      8.19095     -22.9965 
-0.00287982      11.1343      125.717 
-0.000994719      7.11463      133.975 
0.00194841      8.68251      150.010 
-0.000515021      6.14557      132.098 
0.000514631      8.58177     -49.4422 
0.000513428      1.87883      25.2011 
-0.00190911      8.21523     -21.5683 
-0.000509125      10.9753     -32.2710 
0.000987505      10.2596     -162.413 
0.000501724      8.60997     -49.4276 
-0.000496451      4.52124     -76.7014 
-0.000974368      8.14985     -120.530 
 0.0108489      11.8296      144.079 
-0.000937577      3.30024     -89.3055 
0.000489370      9.90729     -2.19815 
0.00139915      10.9957      113.021 
0.00403756      12.0111      80.3181 
0.00138363      8.59479     -49.3409 
-0.00137916      10.9883      37.3079 
0.00134373      9.10811      52.8533 
-0.000477872      9.80159      112.431 
0.00226406      9.90808     -2.31372 
-0.000911904      6.42800     -9.49163 
-0.000908336      10.1510     -33.7527 
-0.00218210      15.0124      127.313 
-0.00199752      9.35233     -157.493 
-0.000913707      8.14283     -120.722 
0.000459933      1.86075      25.4633 
-0.000879285      10.8696     -35.0352 
0.000452406      6.14352     -49.6213 
-0.00252151      9.17930     -19.7378 
-0.0105420      9.66513     -172.390 
-0.00169767      12.0039      117.163 
0.00386212      7.15835     -95.9336 
0.00938759      10.7213     -17.5899 
0.00166291      6.34003     -179.819 
-0.000435958      8.13263     -120.601 
-0.000430231      9.47945     -173.580 
-0.00456888      8.12564     -120.794 
-0.000427345      4.90135      48.3082 
-0.00206118      11.0005      37.3908 
-0.000427126      8.20790     -21.4385 
0.00200737      6.13058     -49.7636 
-0.00206590      10.2697     -175.644 
-0.000818673      10.1717      136.514 
-0.00180538      6.40828     -9.52112 
-0.000800255      10.1399     -33.6587 
0.000814842      8.60783     -49.2399 
0.000412581      9.90891     -2.42927 
-0.000410428      8.22652     -21.3875 
-0.00323671      13.9715      47.4946 
-0.00115818      4.88807      48.4833 
-0.00488415      9.58052     -27.4744 
-0.00291584      6.40590     -10.4328 
0.000405905      9.90977     -2.54480 
0.00154663      11.9914      80.3020 
-0.00388209      10.2682     -175.755 
0.00153911      4.38771      33.4728 
0.000781935      10.9238      78.9164 
0.000398746      9.91068     -2.66031 
-0.000397390      6.40956     -10.6087 
-0.000394639      12.4840      36.9250 
-0.00434940      10.9846      37.4541 
0.000777753      9.91163     -2.77580 
-0.00355837      9.16048     -19.7800 
0.00145285      14.4820      52.1805 
-0.000750088      15.0246      127.373 
0.000758928      9.91262     -2.89127 
0.000737884      9.27987     -14.6053 
-0.00175816      12.6324      136.347 
-0.000376678      11.1180      125.777 
0.00143139      10.9943      115.540 
-0.000374783      12.4680      36.9802 
-0.000729748      9.49933     -173.593 
0.00218668      9.91365     -3.00671 
-0.000371486      10.8581     -34.9488 
 0.0174223      10.2667     -175.867 
-0.000725370      13.5023      132.719 
-0.000706962      12.0130      117.248 
0.000361019      11.9750      80.1916 
0.000710508      11.6265     -44.0243 
0.00384804      6.14586     -49.8841 
0.000707023      12.8523      42.6036 
0.000353620      10.2216     -1.00902 
0.00240652      9.91472     -3.12213 
0.00137573      11.9553      80.1753 
-0.00138448      11.8028     -31.3467 
-0.000350696      12.4801      37.0535 
-0.00103179      9.48171     -173.460 
-0.00168024      13.5170      132.661 
-0.000690097      12.4641     -35.3987 
0.00163151      4.40441      33.3293 
0.00264186      12.8806      42.6088 
0.000997377      11.6404     -44.0950 
0.00349561      11.1509     -151.504 
-0.00132259      12.4525     -35.3237 
-0.000338276      4.87483      48.6593 
-0.00261283      11.7857     -31.3973 
0.000667610      9.89475     -3.12844 
-0.000335778      9.71615     -166.307 
-0.000334306      10.8467     -34.8622 
0.000336415      9.97519      29.2889 
-0.00371771      10.9724      37.3712 
-0.00494051      9.50158     -173.473 
-0.00223120      10.8517     -34.7152 
0.00223371      9.95775      29.3452 
0.000330232      11.9194      80.0477 
-0.00221049      9.72091     -166.192 
0.00256322      9.89586     -3.24406 
0.00191610      11.8441      79.8855 
0.00463759      12.3373      138.220 
0.00157542      10.5583      30.2564 
-0.0229393      10.2653     -175.978 
-0.00218507      12.4689     -35.2706 
-0.000634677      12.4641      37.1089 
0.000319320      7.14056     -96.1098 
-0.000318822      6.40231     -10.2568 
-0.00154110      13.9580      47.5551 
-0.000317078      9.60685     -27.2585 
-0.000315411      9.68233     -172.523 
-0.000940243      11.7687     -31.4480 
-0.00151330      12.6469      136.410 
-0.00399609      10.2777     -175.088 
-0.000313002      6.38526     -9.37381 
-0.000620367      13.5317      132.604 
-0.00183568      7.00771     -71.8753 
0.000312056      11.8997      80.0311 
0.000311166      11.6544     -44.1657 
0.00152741      10.6626      16.5654 
0.00274320      9.89701     -3.35966 
-0.00244283      11.7791     -31.5310 
0.00353828      10.7093     -17.3859 
0.000608911      12.9088      42.6141 
0.000610279      11.8458      144.136 
0.00241831      11.8800      80.0144 
-0.000913161      12.4482      37.1645 
0.000607654      11.9772      147.133 
-0.000605354      10.9354     -32.5275 
0.00575475      11.8179      144.158 
0.000610034      10.4762     -19.7495 
0.000304942      11.8244      79.8685 
0.000304487      12.9423      46.0644 
0.000304649      11.6826     -44.1677 
-0.000619589      13.5182      132.542 
-0.0188852      10.2639     -176.089 
0.00360547      10.1679      10.4258 
-0.000301797      12.4852     -35.2176 
0.00360745      10.4695     -19.6465 
-0.00150093      5.75868     -171.814 
-0.000601013      12.4603      37.2378 
-0.000301182      11.7725     -31.6649 
-0.000299400      9.81715     -24.6855 
-0.00180006      11.7346     -32.4712 
0.00150119      9.91897      83.7491 
0.00390010      9.89820     -3.47523 
-0.00149899      10.1920     -165.337 
-0.00179699      9.84368     -24.7426 
0.000901041      11.1333     -151.455 
-0.00270479      12.4443      37.2935 
-0.000600443      7.00151     -72.0309 
-0.000898913      7.25416     -77.4198 
-0.000597863      11.7831     -31.7477 
0.00880345      10.1875      10.4055 
0.00454717      12.3424      42.6359 
-0.0108670      11.5580      152.371 
-0.00425988      5.73889     -171.785 
-0.000299000      9.66251     -172.507 
-0.00180476      9.50387     -173.354 
0.000598590      11.8962      80.1259 
-0.00180200      11.7514     -32.4188 
0.00180934      12.3224      138.158 
-0.00242673      10.2113     -165.365 
0.000300048      11.9159      80.1424 
 0.0234604      10.7033     -17.2838 
-0.00181442      11.7576     -32.2843 
-0.00120947      9.85207     -24.8483 
-0.000300321      12.6193     -141.822 
0.00489043      9.91940     -3.58354 
0.000907169      11.9322      80.2535 
0.000301476      9.94796      29.2448 
-0.00182181      9.48635     -173.220 
-0.000604181      12.6350     -141.878 
-0.000301185      11.7936     -31.8303 
-0.00122355      7.23464     -77.3853 
-0.000920217      12.6186      136.413 
0.00214805      10.4628     -19.5433 
-0.00312975      12.4406      37.4226 
0.000922731      9.45016      13.2127 
-0.000612706      11.7683     -32.3666 
-0.000304422      12.6227     -141.950 
-0.00308973      9.50621     -173.234 
-0.00122423      9.87862     -24.9048 
-0.00153238      11.7745     -32.2323 
0.000612572      11.1253     -151.316 
0.00185649      11.9125      80.2372 
0.00415620      6.56987     -28.7497 
-0.000921085      12.6384     -142.006 
0.00350837      12.3707      42.6413 
0.00124424      12.3075      138.096 
-0.000616653      10.2760     -175.199 
0.000622993      11.8182      144.992 
-0.00526385      11.7852     -32.3146 
-0.00787205      10.7327      159.606 
-0.000942511      11.7915     -32.1805 
-0.00483363      10.2256     -165.502 
-0.00330575      12.3161     -141.660 
-0.00126333      9.88706     -25.0099 
0.00950560      10.2072      10.3852 
-0.00293393      12.3285     -141.587 
0.00692772      9.92067     -3.69882 
-0.000633737      7.02054     -72.0812 
-0.000315762      12.5131     -35.2396 
-0.00261223      5.75587     -172.011 
-0.00160385      9.50859     -173.114 
0.00335534      13.9545      137.207 
-0.000976664      10.0941      137.650 
0.00163528      9.43530      13.3587 
0.000318793      13.1412      53.9149 
0.00198194      11.9289      80.3482 
-0.00131307      7.01441     -72.2367 
0.000989906      11.8134      144.857 
0.000654844      13.1574      53.9662 
0.00440094      12.3572      42.5731 
0.000662485      12.2926      138.034 
-0.00131974      9.52844     -173.129 
-0.000657233      9.91365     -25.0658 
-0.000327463      10.7070      159.669 
-0.000664295      13.5329      132.484 
0.00101885      9.39951      7.45769 
-0.000328446      11.8084     -32.1288 
-0.00274389      9.53086     -173.009 
-0.00102254      11.9404      78.0125 
0.000332817      12.9724      46.4368 
-0.00101166      10.7140      159.569 
-0.00103238      12.4369      37.5517 
-0.00101986      9.92214     -25.1704 
0.000336960      13.1692      53.8959 
-0.00279159      10.2450     -165.530 
-0.00141186      11.8021     -32.2627 
-0.00103879      10.1584      172.875 
-0.00244664      10.3408     -171.995 
-0.000694024      5.77567     -172.038 
0.000343330      9.43994      13.4768 
-0.000698702      7.03346     -72.2864 
0.000693905      10.1288      14.6399 
-0.00105399      10.2400      180.000 
0.00141759      10.8544      20.6055 
0.000349589      12.9732      46.5617 
-0.00106726      12.3128     -141.529 
0.00107053      10.1482      14.6114 
-0.00168456      5.92679     -119.073 
0.000354822      11.9452      80.4588 
-0.000355883      10.1560      172.987 
0.000356825      10.0894     -7.63217 
0.000357070      9.41934      7.44190 
-0.000358537      9.55071     -173.024 
-0.000358834      11.9558      78.1262 
5.88945e-05      11.5310      152.413 
0.00846940      10.2083     -175.730 
-0.00349690      10.0820      10.2845 
0.00310568      10.2268     -175.851 
-0.00114609      7.72924     -40.6978 
-0.00478486      10.6651     -17.3476 
-0.000711556      6.64569      153.743 
0.00140744      10.2283     -175.739 
-0.00102736      10.7123      67.2649 
-0.00225089      10.0981      10.1526 
0.000976533      13.5418      116.868 
-0.000679676      8.90225      1.28733 
0.00429333      10.2468     -175.859 
0.00213599      11.2340     -43.2687 
-0.000648199      12.2240     -37.0199 
-0.000631306      6.26115      1.09819 
-0.00153692      8.90272      1.41601 
-0.00119660      10.7308      67.3062 
-0.00330859      12.2400     -36.9635 
0.000297407      10.9095      155.408 
-0.000574933      5.93653     -119.242 
-0.000292434      6.70179     -138.508 
-0.00278829      8.03318      86.7173 
-0.00112277      10.6842     -17.3156 
-0.000854505      10.1017      10.2643 
0.00186746      10.9361      155.357 
0.000553257      13.5149      116.830 
-0.000286786      6.28080     0.912277 
0.000285088      4.79854     -12.7619 
0.00202728      8.15843     -168.690 
0.000279766      13.1207      53.7415 
-0.000278775      8.92224      1.28444 
0.00181072      4.80300     -12.9946 
-0.00202480      14.1140      134.770 
-0.00248409      10.6902     -17.4180 
-0.00180981      10.1178      10.1326 
-0.00101077      6.71506     -138.381 
0.00125697      9.93885      83.7617 
-0.00142284      8.92271      1.41284 
0.00188835      11.2486     -43.1988 
-0.000259104      10.7385      67.2078 
-0.000246070      10.7570      67.2490 
-0.000244243      5.94633     -119.410 
-0.00289884      12.2560     -36.9073 
0.00174269      8.93400     -164.284 
0.000917476      14.7220      54.0642 
-0.000706918      10.1213      10.2441 
0.000238113      13.4791      116.717 
0.000896694      10.9542      155.400 
0.000678684      8.92861     -164.407 
0.000452145      7.47015      75.7405 
-0.000446800      10.7647      67.1509 
-0.000430323      8.41344      28.6974 
-0.00131688      10.1375      10.1127 
-0.00128448      14.1282      134.713 
-0.000224018      7.08282     -8.77076 
-0.00250784      14.5500      124.018 
0.000419975      8.72800     -36.8962 
0.000217770      4.77904     -12.8149 
0.000217975      9.94105      83.6471 
0.00225524      11.8297     -32.2929 
0.000424669      11.0557      115.962 
0.000619768      10.9807      155.349 
-0.00123296      10.1410      10.2240 
-0.000208448      9.00278     -139.054 
0.00374644      14.4155      51.8740 
0.000412658      11.0470      115.869 
-0.00336671      12.2720     -36.8512 
-0.00415673      12.4328      34.7126 
-0.000398895      6.37156     -137.799 
0.00393722      11.8128     -32.3447 
0.000201525      11.7266     -33.3106 
0.000401024      8.94787     -164.442 
0.000201210      11.0290      115.915 
0.000595825      11.0073      155.298 
-0.000200379      10.1572      10.0929 
0.00118333      10.7351      159.269 
0.000199149      10.4487      161.010 
-0.000198889      9.01590     -138.958 
-0.00176094      10.1607      10.2040 
0.000779263      11.0203      115.821 
0.000391153      10.9559     -146.919 
0.000389657      10.9989      155.392 
-0.000194797      8.82236     -8.73629 
0.000581365      10.7093      159.331 
0.000195165      11.7047     -33.1470 
0.000193655      6.55966     -17.3853 
0.000386599      11.0254      155.341 
0.00173906      10.9727     -146.976 
-0.00349011      13.7180      44.7637 
-0.00432615      10.9106      20.4946 
0.000579338      6.56567     -17.5518 
0.00135108      11.0171      155.436 
-0.000579656      10.1804      10.1840 
-0.000192606      14.5335      124.062 
0.00135485      10.7164      159.231 
-0.00430921      12.3000     -36.8699 
0.00318006      14.9701      133.159 
-0.00116126      10.1839      10.2948 
0.000387039      10.9936      115.773 
0.000583746      6.54058     -17.4376 
0.00116709      11.0088      155.530 
0.00102511      11.8573     -32.3230 
0.00117317      10.3976     -161.495 
-0.000194797      10.1079      168.935 
0.000594121      11.7215     -146.906 
0.00118958      14.4121      51.7624 
0.000393242      10.9618     -147.064 
0.00306644      11.7047     -146.853 
0.00226457      10.6906      159.293 
0.000790815      11.0005      155.625 
-0.00492419      13.7039      44.7044 
0.000197039      11.6552     -32.9538 
0.00267159      10.3786     -161.460 
0.000602618      6.53462     -17.2703 
0.000401323      11.8071      86.1149 
0.00224509      11.0188      155.668 
0.00123044      10.9786     -147.121 
-0.00542647      10.6974     -17.1815 
0.00111216      10.9669      115.724 
-0.00335845      12.3280     -36.8885 
0.00125542      11.7959     -32.3967 
0.00188724      13.3220      45.2433 
0.000410074      11.8404     -32.3747 
0.000205110      11.5487      152.459 
-0.00212790      10.9036      20.3961 
-0.000206863      9.39585      13.9179 
0.000419027      11.7886      86.0113 
0.000850705      10.2545     -165.774 
-0.00149448      12.4214      34.6368 
-0.00128472      9.40068      14.0362 
0.00128690      14.9555      133.212 
0.000209578      6.52871     -17.1027 
0.00107515      11.0105      155.763 
-0.00129680      10.2269      10.3650 
0.000641409      11.3426      25.7066 
0.000213659      9.72109     -176.225 
0.000213768      11.6672     -32.6821 
0.000870176      10.3723     -161.565 
-0.00146204      6.91231      104.237 
-0.000215071      11.1566     -23.8999 
0.000434560      10.9678     -147.208 
0.000216825      11.7105     -146.988 
0.000217583      9.72243     -176.108 
0.000219218      11.3513      25.7975 
0.000219803      11.7900      85.9144 
-0.00325492      10.2098     -175.619 
0.00105952      3.44308      48.5323 
-0.00177456      14.4403      124.504 
0.00142556      8.53625     -42.4362 
0.000808926      13.4215      45.5434 
-0.000981100      4.60017      90.4982 
-0.00135401      9.94967     -165.210 
0.000819030      12.2600     -36.7764 
0.000944204      14.1626      121.311 
0.000915267      12.2760     -36.7205 
-0.000548735      10.2298     -175.627 
-0.000538324      7.23771     -117.840 
-0.000366238      7.44672     -111.258 
0.000185753      8.73038     -38.2088 
0.000529042      10.7203     -45.6047 
0.000701716      8.77086     -38.3333 
-0.000354211      8.53763      155.356 
0.000349511      12.2052      84.0745 
0.000175034      13.4358      45.6031 
-0.000344978      7.43949     -111.115 
0.000173037      2.69236      138.614 
-0.000170416      9.73639     -39.2480 
