! Center RA: 14 08 56.48120,  Dec: -07 52 26.66649 (2000.0)
! Established model.
! Flux (Jy) Radius (mas)  Theta (deg)  Major (mas)  Axial ratio   Phi (deg) T \
! Freq (Hz)     SpecIndex
  0.165169    0.0447214      26.5651 
 0.0390170    0.0282843      45.0000 
0.00690485    0.0400000      0.00000 
0.00800409    0.0200000      0.00000 
0.00180913    0.0282843     -45.0000 
0.00349077    0.0721110      56.3099 
0.00174487    0.0447214     -63.4349 
 0.0222029    0.0632456     -71.5651 
0.00921351    0.0894427      63.4349 
 0.0132403    0.1000000      53.1301 
0.000953123    0.0600000     -90.0000 
0.00552815     0.134164     -63.4349 
0.00362472     0.126491      71.5651 
0.00322529     0.121655      80.5377 
0.00318734     0.144222     -56.3099 
0.000751038     0.140000      90.0000 
0.00217173     0.172047     -54.4623 
0.00412294     0.141421      98.1301 
0.00447437     0.184391     -49.3987 
0.00184244     0.145602      105.945 
0.00115776     0.170880      110.556 
 0.0132749     0.226274     -45.0000 
 0.0122292     0.178885      116.565 
0.00550936     0.506360     -80.9097 
0.000653203     0.786384     -97.3058 
0.00464126     0.784092     -95.8560 
0.00349895     0.483735     -82.8750 
0.00137299     0.802247     -94.2892 
0.00158750     0.460435     -87.5104 
0.000126079     0.440000     -90.0000 
0.000355879     0.420476     -92.7263 
0.00130310     0.421900     -95.4403 
0.000989230     0.800999     -92.8624 
0.00191425     0.200000     -53.1301 
0.000194410    0.0824621      75.9638 
0.00140656     0.100000      90.0000 
0.000339506     0.212603     -48.8141 
0.00319227     0.481664     -85.2364 
0.000160581     0.101980      101.310 
0.000312107     0.126491      108.435 
0.000726918     0.134164      116.565 
0.000723140     0.228035     -52.1250 
0.00264470     0.172047      125.538 
0.000467769     0.316228      18.4349 
8.59923e-05     0.503587     -83.1572 
0.00112975     0.501597     -85.4261 
0.000173164     0.244131     -55.0080 
0.000784205     0.284253     -129.289 
0.000375846     0.310483      14.9314 
0.000233976     0.523450     -83.4181 
0.000478928     0.780256     -88.5312 
7.24227e-05     0.761052     -86.9872 
0.000367683     0.545894     -81.5730 
0.000917746      1.04019     -91.1017 
0.000448491     0.329848      14.0362 
0.000740730     0.300000     -126.870 
0.000368865     0.780000     -90.0000 
0.000425158     0.349285      13.2405 
4.83528e-05     0.568859     -79.8753 
4.73984e-05     0.368782      12.5288 
0.00299118      1.48189     -31.7595 
0.00147839      1.46492     -32.1712 
3.98225e-05      1.52735     -45.0000 
-0.000832436      2.08471     -3.85064 
-0.000878114      1.08259      78.2749 
-0.000894840      4.50409      23.8333 
-0.000905902      2.10466     -3.81408 
0.00136167      5.32534     -71.8372 
-0.000548293      5.23927     -156.371 
-0.00111637      2.83210      126.384 
-0.00132134      4.48580      23.9366 
0.00137032      5.31914     -72.0419 
-0.000463827      4.74691     -131.413 
0.000193445      4.64315      74.7665 
-0.000234336      5.22096     -156.283 
0.000354007      4.62917      74.4626 
-0.000216851      1.34833      159.146 
-0.000457422      5.03591      94.5558 
-0.000984793      2.82028      126.057 
-0.000291833      2.58070      72.4076 
-0.000329221      3.42864     -118.957 
0.000126578      4.91630     -4.66686 
-0.000416906      1.36704      159.444 
0.000348438      4.93623     -4.64797 
0.000614446      6.94380      45.1167 
0.00110744      5.48810      50.9163 
-0.000186418      4.76193     -131.254 
-0.000779331      2.58681      71.9853 
-0.000559906      4.21692      38.0657 
-0.000213194      4.18884      38.0189 
-0.000136455      1.09836      79.5085 
0.00110552      4.93465     -4.41652 
-0.000130513      4.77514     -131.434 
-0.000462130      1.36015      160.233 
-0.000504004      4.20119      38.2338 
-0.000456478      4.76923      112.694 
0.000455993      5.30634     -71.7699 
0.000173962      4.32208      76.3496 
0.000267394      3.93487     -162.854 
0.000364375      4.17215      45.5826 
-0.000269768      5.03754      94.7825 
0.000284275      5.18479      150.666 
-0.000415329      4.20576     -87.0015 
-8.42784e-05      2.83648      125.819 
0.000189961      5.67242      39.1331 
0.000811438      5.47551      51.0787 
5.43604e-05      5.68795      39.0059 
0.000492327      3.94081     -162.577 
0.000131150      5.10956      147.305 
-0.000131330      1.37899      160.514 
7.68302e-05      2.38403      59.7782 
-7.70227e-05      2.82482      125.491 
0.000165439      4.30265      76.2867 
0.000369377      5.70056      39.1621 
0.000120878      6.95799      45.2329 
-0.000255987      1.37244      161.301 
0.000276736      5.31263     -71.5651 
0.000117690      5.09274      147.184 
-2.46230e-05      4.79016     -131.276 
-4.84118e-05      2.82963      124.926 
-7.10503e-05      4.46466     -131.186 
-2.39704e-05      4.45731      38.2583 
-4.70229e-05      5.64613     -65.0689 
-4.63339e-05      2.83471      124.363 
0.000184682      5.16736      150.558 
-0.000179457      5.65459     -64.8852 
0.000111012      3.36149      100.976 
-0.000341508      4.47973     -131.017 
0.000210415      4.93315     -4.18492 
-0.000129367      5.03925      95.0091 
-4.44808e-05      2.85125      124.136 
-0.000106501      4.18688     -86.7139 
8.79078e-05      4.29795      76.5457 
-4.36166e-05     0.141421     -171.870 
6.41836e-05      5.09878      147.494 
-6.32894e-05      2.85671      123.579 
-0.000147991      5.66311     -64.7019 
0.000453601      4.27850      76.4834 
4.25563e-05      5.27712      116.565 
6.30489e-05      5.68507      39.2894 
0.000304443      5.46297      51.2419 
2.12264e-05      2.77042     -4.96974 
0.000451261      6.92970      45.2339 
0.000367357      5.29366     -71.4966 
0.000163953      5.28610      116.759 
4.12855e-05      2.78869     -4.52477 
2.08012e-05      3.94685     -162.300 
-2.07542e-05      2.89993      24.4440 
0.000235943      5.99573     -121.357 
-0.000591805      5.66230     -64.2495 
2.04912e-05      5.08193      147.373 
0.000100118      5.71321      39.3176 
0.000244052      3.34186      101.041 
-7.94217e-05      5.01932      95.0291 
-0.00133215      5.48547      68.3925 
-0.000115284      2.87346      24.2459 
-5.89726e-05      6.41564      51.2007 
0.000260652      5.26824      116.857 
0.000135196      5.42443     -53.8484 
0.000151980      4.15788      45.3898 
-0.000299999      4.16812     -86.4237 
-9.66154e-05      6.41875      51.4517 
-5.73344e-05      4.46663     -130.824 
-0.000432390      5.04103      95.2356 
-0.00154644      6.40312      51.3402 
-3.78689e-05      3.85175      11.0765 
5.58162e-05      4.95459     -4.39871 
-5.66830e-05      5.67101     -64.0675 
-0.00257101      5.65303     -63.9789 
5.53837e-05      2.80863     -4.49258 
3.71132e-05      6.00616     -121.520 
-1.86146e-05      3.85565      11.3682 
-0.000766310      5.15321     -154.728 
0.000230745      5.41265     -54.0193 
-0.000160102      1.11463      80.7067 
0.000108388      2.52872     -81.3572 
-0.000617951      6.40631      51.5916 
-0.000814281      5.75281      120.041 
-5.30868e-05      4.96234     -103.756 
7.10159e-05      2.82857     -4.46085 
-0.000467534      7.02877     -45.3458 
0.000155034      5.31898     -71.3607 
0.000172506      5.49108      51.2098 
-0.000654348      5.47814      68.5870 
0.000444508      6.92988      45.4677 
-3.46850e-05      2.11518     -40.0137 
-3.44589e-05      2.10238     -39.5962 
-5.16287e-05      4.95762     -103.532 
-0.00312913      5.66184     -63.7970 
5.15830e-05      6.91563      45.3515 
8.58415e-05      4.15817      45.7795 
-0.000255924      6.06419     -126.416 
1.71458e-05      2.84851     -4.42956 
0.00148526      5.17818      102.265 
0.000289207      2.80692      34.2562 
-1.69940e-05      7.04284     -45.2301 
-1.69782e-05      4.95298     -103.307 
-0.00178751      7.01456     -45.2310 
0.000237919      5.40359      62.2020 
-0.000476723      4.16941     -86.1494 
-0.000885580      6.08030     -126.304 
-0.000340290      5.14373     -154.431 
0.00232289      6.91587      45.5858 
-3.39925e-05      4.94841     -103.081 
0.00189164      5.18247      102.481 
-0.000119009      3.20306      25.1250 
0.000187155      5.32541     -71.1568 
-6.80308e-05      4.94393     -102.856 
0.000517671      5.45047      51.4059 
-6.80536e-05      4.93951     -102.629 
0.000221605      2.81233      33.6901 
0.000206006      5.39429      62.3899 
-0.000102321      4.93518     -102.403 
1.70708e-05      3.46831     -147.960 
-6.82777e-05      4.79854     -155.892 
-0.000227587      5.74282      119.869 
6.86252e-05      4.50640      176.947 
-0.000154433      4.80870     -156.207 
5.15763e-05      5.14774     -67.6199 
5.16139e-05      3.48528     -148.134 
-0.000120883      4.93092     -102.176 
-0.00149761      6.08464     -126.041 
-0.000227617      4.19223     -85.6223 
-0.000506901      4.82701     -156.303 
3.47700e-05      4.52637      176.961 
1.73566e-05      3.47477     -148.414 
0.000528459      5.20634      102.648 
5.25256e-05      5.15539     -67.4143 
0.000177441      3.49182     -148.586 
-0.000122883      4.94223     -101.674 
8.80457e-05      4.50537      177.201 
8.85750e-05      5.41202      62.4880 
7.22323e-05      5.15984     -97.1250 
-8.97202e-05      4.93822     -101.446 
-0.000380296      4.83735     -156.615 
-5.35173e-05      4.26980     -128.534 
5.36165e-05      4.52535      177.213 
0.000145842      5.45370      51.7012 
-0.000259294      4.84322      99.2678 
-0.000451315      4.25737     -128.324 
5.40812e-05      4.82000      180.000 
0.000277748      4.80004     -179.761 
-0.000320377      6.40006      51.0885 
-0.000131847      5.71552      119.795 
-7.34208e-05      4.34166      165.324 
0.000893461      6.91621      45.8201 
3.69357e-05      3.50890     -148.756 
-0.000113160      4.93429     -101.219 
-0.000301119      4.55056     -159.414 
-1.86168e-05      4.36101      165.390 
1.86079e-05      6.42246     -50.5599 
1.86030e-05      6.24810      126.540 
3.82546e-05      5.04670      87.0469 
1.89372e-05      5.05371      63.9420 
0.000330623      5.21076      102.863 
-7.66675e-05      6.69238      130.880 
9.67667e-05      5.15740     -96.9045 
-0.000136498      6.72836     -131.747 
-0.000293601      4.56929     -159.503 
0.000156471      4.80017     -179.523 
-7.87371e-05      5.70561      119.620 
-5.89750e-05      6.67931      130.750 
1.98913e-05      2.49704      125.218 
