! Center RA: 16 53 52.21668,  Dec: +39 45 36.60881 (2000.0)
! Established model.
! Flux (Jy) Radius (mas)  Theta (deg)  Major (mas)  Axial ratio   Phi (deg) T \
! Freq (Hz)     SpecIndex
 0.0593901   0.00999997     -90.0000 
 0.0460483    0.0100001      180.000 
 0.0190116    0.0141422     -135.000 
0.00391913      0.00000      0.00000 
0.000447798    0.0360555      33.6901 
0.000439882    0.0447213      26.5651 
0.000857407    0.0538516      21.8015 
0.00126547    0.0282842     -135.000 
0.000418618    0.0632456      18.4350 
 0.0309954    0.0728011      15.9454 
0.000408937    0.0360555     -123.690 
0.00119317    0.0424264     -135.000 
0.000768866    0.0500000     -126.870 
0.00254065    0.0565686     -135.000 
0.00232748    0.0640312     -141.340 
 0.0235039    0.0721110     -146.310 
 0.0190359     0.161245      60.2551 
0.00626465     0.166433      57.2648 
0.00110160     0.165529      64.9831 
0.00164691     0.161555      68.1986 
0.00423539     0.162788      79.3803 
0.00427003     0.176918      47.2906 
0.000610298     0.152971      78.6901 
0.00229559      1.02694      157.681 
0.00306354     0.493356      162.300 
0.00162789     0.496488      161.200 
0.00309123      1.01390      157.989 
0.000264516     0.478017      164.219 
0.000655954     0.447214      169.695 
0.000202787     0.499800      160.115 
0.000268772     0.503289      159.044 
0.000114165     0.516236      158.405 
0.000467756     0.506952      157.989 
0.000347353     0.520000      157.380 
0.00104950     0.457056      169.919 
0.000422176     0.523928      156.371 
3.66604e-05     0.987927      158.629 
7.00241e-05     0.974987      158.962 
5.22199e-05      1.04389      156.873 
0.000302516     0.514782      155.925 
0.000112299     0.962081      159.305 
0.000138978      1.05702      156.588 
5.86739e-05     0.949210      159.656 
0.00140411      1.02078      145.376 
0.00171213      1.10436      125.417 
0.00221232      1.01514      145.840 
0.00741219    0.0200000      180.000 
0.00137555     0.528015      127.304 
0.000126185     0.490408      163.413 
8.31121e-05     0.475395      165.379 
0.000607273     0.472969      166.551 
0.00117954      1.09859      124.992 
0.000363785     0.536004      126.656 
0.000274582     0.482701      166.827 
0.000440867      1.00955      146.310 
0.000109069     0.497695      157.557 
0.000770589     0.784920      124.095 
0.00275627     0.354683      139.574 
0.000965499     0.790569      124.695 
0.000153885     0.776209      128.199 
0.000407183     0.793221      123.690 
0.000201380     0.782432      128.774 
0.00373278     0.240832     -138.366 
7.32910e-05     0.259422     -152.447 
0.000832594     0.264008     -155.376 
0.00120413     0.269258     -158.199 
4.09734e-05     0.291204     -164.055 
0.000562177     0.774661      129.237 
0.000540212    0.0300000      180.000 
0.000285733     0.361248      138.366 
0.000265215     0.367967      137.203 
3.60183e-05     0.298329     -166.430 
0.000225243     0.314006     -170.838 
7.54459e-05     0.508035      126.193 
0.000691326     0.242074     -141.710 
0.000312913     0.768375      128.660 
0.00490551     0.281603     -163.496 
3.17176e-05     0.288617     -165.964 
7.26255e-05     0.760592      129.130 
5.56715e-05     0.558032      126.254 
0.00165210      1.45671      135.556 
0.00173792      1.47085      135.551 
0.00126076      1.44959      135.279 
0.00546631    0.0316228     -108.435 
0.000715756      1.47801      135.822 
0.000564668     0.244131     -145.008 
0.00125179      1.49241      136.357 
0.000761511      1.37295      132.639 
0.000127958      1.49967      136.621 
0.000150382      1.50695      136.882 
0.000196840      1.51427      137.141 
0.000528614      1.52161      137.397 
0.000856314      1.38033      132.357 
0.000977427      1.52899      137.651 
6.44961e-05     0.236008     -143.616 
0.00208808     0.364006      142.815 
0.00163903      1.01789      146.622 
0.000301501      1.04278      155.647 
5.73263e-05     0.712180      128.157 
8.07593e-05     0.720069      127.666 
0.000161923      1.13225      125.655 
0.000284456     0.706045      127.519 
0.000943353      1.02956      155.925 
0.000786543      1.15209      126.174 
3.00447e-05     0.622013      126.501 
8.47377e-05     0.608030      126.304 
0.000302745     0.483011      152.904 
0.000861115     0.356090      141.843 
4.01121e-05     0.734098      127.807 
0.000368236     0.594054      126.098 
0.000259038     0.742024      127.333 
0.000569915     0.600000      126.870 
0.000182358     0.911811      158.782 
0.000728614      1.00404      146.785 
0.00149524     0.348282      140.826 
0.000833614     0.915478      158.199 
0.000246079     0.748131      127.942 
0.000231065      1.20420      127.917 
7.67755e-06     0.362353      140.599 
0.000395182     0.494975      171.870 
0.000531252     0.506360      170.910 
0.000911847     0.485077      171.703 
0.00151607     0.815966      160.677 
8.35079e-06     0.626498      171.741 
0.000272356     0.625140      172.648 
7.99009e-05     0.463897      172.569 
4.51923e-05     0.453982      172.405 
0.000271643     0.432897      173.367 
0.000240637     0.779295      171.142 
0.000720446     0.473814      172.725 
0.000120024     0.452769      173.660 
0.000469363     0.431857      174.685 
2.95991e-05     0.623939      173.558 
0.00179107     0.370540      86.9060 
0.000475923     0.736003      126.714 
0.000802188     0.380132      144.638 
0.000122237     0.518652      123.996 
0.000163220     0.750000      126.870 
0.000149917     0.504777      123.690 
2.81797e-05     0.744043      126.254 
0.000390286     0.758024      126.416 
0.000410588     0.510392      124.624 
0.000150386     0.372022      143.746 
0.000161735     0.766094      125.972 
8.40983e-05     0.496488      124.330 
0.00134460     0.360555      86.8202 
0.000702598     0.361248      85.2364 
0.000940752     0.482597      124.019 
0.000166476     0.764003      127.020 
0.000625040     0.772010      126.573 
-0.00104853      4.28664     -122.133 
-0.00122441      4.00839      53.9306 
-0.000342371      4.99316      101.085 
0.00130934      4.15589     -62.0167 
-0.000907984      5.30891      101.077 
-0.000779493      4.99124      100.972 
-0.000992400      6.00483      118.443 
0.000955867      7.81181      128.660 
0.00120602      2.28300      15.4972 
-0.00131767      4.28133     -122.020 
0.000100823      2.37245     -127.981 
-0.000895428      7.17432      143.673 
0.000870462      2.37861     -128.171 
-0.000930423      5.23259     -153.925 
-0.00116891      3.99296     -29.0685 
-0.00103972      5.98400     -162.595 
0.000449806      5.56044      179.279 
0.000508859      1.71843      58.8075 
-0.00103881      4.01429      53.8152 
-0.000561346      4.42477      30.5640 
0.00142988      4.47756      130.199 
-0.00123429      5.00297      101.063 
-0.000856702      5.31084      101.183 
0.000823238      3.88197     -77.5032 
0.000174426      1.75000     -90.0000 
-0.00111529      1.12272      107.628 
-0.000846842      6.01839      118.481 
0.000529810      4.91187      160.495 
-0.000560725      6.19589     -151.987 
0.000974120     0.657343      76.8094 
-0.000166849      3.01573      57.7328 
0.00215590      1.72363      58.5232 
0.000463700      5.57044      179.280 
0.000491050      1.75003     -89.6726 
-0.000281845      6.78620      129.319 
0.000736895      2.44624     -23.1063 
-0.00122039      6.27492      150.289 
-0.000412175      3.74769     -112.596 
-0.000457191      1.26016     -35.9605 
0.000198095      7.82587      128.671 
-8.12237e-05      5.88154      154.306 
-0.000446598      3.91152      94.3987 
0.000750641      1.39843     -163.379 
0.000589872      4.35332      95.9332 
-0.000194314      3.01887      57.9946 
-0.000615425      3.84906      109.424 
0.000515622      7.18471      145.204 
-0.000534987      5.24157     -153.973 
-0.000757725      2.80045      91.0230 
0.000115898      1.55769      164.358 
0.000939636      5.25681      59.7279 
-0.000496023      4.42832      30.3868 
-0.000190020      3.90080      94.2635 
-7.72871e-05      5.89055      154.348 
-0.000466459      4.01289     -111.642 
-0.00102881      6.79254      129.384 
-0.000584564      5.21231     -147.377 
3.81596e-05      7.19863      145.184 
-0.000473076      4.53296      100.294 
0.000158199      1.94281     -104.608 
-0.000379311      3.51454      168.179 
-0.000712752      5.02109     -124.861 
0.000557612      2.29264      15.4305 
0.000284896      4.80308      116.458 
-0.00133424      2.31458     -119.223 
-0.000216303      5.90390      154.303 
0.000317215      7.59634      143.673 
0.00153689      2.02921     -119.850 
0.000145671      1.52611      164.416 
-0.000144795      3.01359      58.1558 
-0.000461070      1.81000      0.00000 
-0.000160556      6.63090      125.176 
-0.000106188      1.20304      76.5413 
0.000309425      1.32231      7.82371 
0.000137184      2.45025      167.268 
0.000269046      4.89911      160.566 
0.000142752      5.34113      108.672 
-3.61539e-05      5.66316     -139.871 
-7.14690e-05      6.00574     -139.254 
0.000819125      5.61416      167.449 
0.00105404      6.04842      156.105 
0.000555457      1.93569     -104.970 
0.000474772      4.41823     -120.163 
-0.000382010      4.27889     -30.9408 
0.000104113     0.710633     -39.2894 
-0.000348021      5.20693     -147.470 
-0.000343897      5.66438     -140.013 
-0.000477992      3.71571     -50.5696 
0.000103519      1.50416      164.578 
0.00126162      5.32846      108.605 
-0.000409254      6.00680     -139.388 
6.81089e-05      7.83212      128.728 
-0.000232063      3.01684      58.4174 
3.48154e-05      2.38481     -128.360 
0.00103651     0.655134      77.6609 
0.000294587      1.38924     -149.744 
-0.000102407      1.25208     -36.2292 
-0.000194550      5.86331     -146.689 
-0.000323061      3.59227      36.1681 
-0.000164399      5.91291      154.345 
0.00131012      3.87005     -77.6157 
-0.000132360      1.80000      0.00000 
0.000247450      3.25730      161.009 
-0.000317229      2.44632     -26.9840 
0.000280112      5.58044      179.281 
-6.58351e-05      7.18238      143.720 
0.000539156      3.87001      89.8519 
0.000165132      1.48223      164.745 
-0.000257863      3.90006      94.1170 
0.000192114     0.718401     -38.7844 
-0.000826309      4.75303      57.9818 
-9.62906e-05      6.18706     -151.944 
-0.000312854      5.53119      58.3789 
-9.85206e-05      2.00202      17.4394 
-0.000224826      1.23810     -36.1294 
0.000425942      6.03013      142.750 
-0.000629799      4.00170     -28.9990 
-0.000268772      1.19331      76.4296 
-0.000532173      4.00360     -111.695 
-0.000660683      1.11319      107.784 
-0.000159665      5.15873      123.536 
0.000275695      4.79864      116.351 
-9.45682e-05      3.37516      140.651 
0.000357314      3.57174      43.7522 
-6.26409e-05      5.97445     -162.566 
0.000298202      7.57431      143.644 
-0.000660778      4.42634      175.075 
-0.000419574      3.83631      109.332 
-0.000337149      1.99552      17.7994 
-0.000907101      2.30972     -119.006 
-6.32203e-05      3.75155     -112.737 
-9.32359e-05      3.07519     -169.129 
6.05241e-05      2.38648     -128.022 
0.000126008      1.46031      164.917 
0.000528965      2.29965      15.1240 
9.32072e-05      2.64705      83.4925 
-0.000746277      3.50852     -73.2695 
9.25919e-05      1.03600     -143.241 
0.000155380      5.99611      130.197 
0.000321936      1.33222      7.76517 
6.28958e-05      3.01359      66.3271 
0.000357724      3.27947      160.957 
9.40536e-05     0.572713     -77.9052 
0.000121513      5.30800      53.1949 
0.000149221      1.67147      77.2109 
-0.000149437      3.11520      93.3125 
3.10147e-05      2.22194     -47.1886 
-0.000270571      7.85446      138.251 
-9.10664e-05      5.22802     -153.778 
-0.000347574      4.28981     -121.949 
0.000394747      3.45579      121.390 
9.05376e-05      3.13982      154.333 
-0.00101253      4.08148     -88.4556 
-0.000267177      1.23004     -36.4041 
3.07442e-05      1.45066      164.814 
-0.000147837      3.63662     -124.695 
0.000207976      4.88636      160.638 
-0.000119636      5.92193      154.387 
0.000729774      6.00901      101.422 
0.000119226      3.00958      66.5014 
-0.000469016      3.51810     -36.4465 
-0.000173968      3.02015      58.6784 
0.000391433      3.52626      160.794 
0.000146349      2.43830      167.446 
-0.000830725      4.99680      162.290 
0.000419984     0.570701     -78.8870 
0.000176752      1.38062     -149.534 
-0.000164741      2.56383     -176.870 
-0.000502307      5.17259      123.567 
0.000149128      1.43840      165.094 
0.000115731      2.20780     -47.2026 
3.02524e-05      4.46346      130.184 
-0.000348786      5.41646     -44.8504 
3.02345e-05      1.67905      77.6192 
-0.000224112      6.03673      118.603 
0.000331708      5.98966      130.124 
0.000213220      2.64821      83.2775 
0.00193906      3.94738     -84.6216 
-0.00155168      3.26696     -98.6262 
0.000138308      5.07720      98.6089 
-0.000475446      3.58420      36.2624 
0.000194467     0.704344     -38.6598 
0.000116104      4.19734      150.137 
-0.000192105      3.91077      94.2526 
-0.000114336      3.50475      168.145 
0.000645559      4.18369      161.608 
0.00176538      4.46240      59.1243 
-0.000225249      5.64032      90.6095 
0.000261323      6.54109     -149.397 
-5.84137e-05      2.43288     -26.8810 
-8.58844e-05      3.06728     -168.910 
-0.000259877      2.55384     -176.858 
-0.00106988      1.66721      169.634 
-0.000138503      5.23699     -153.826 
-2.92204e-05      5.04754      171.340 
-0.000903431      1.80003     0.318309 
0.000666097      1.82395      176.228 
0.000332890      1.41651      165.277 
-0.000141225      1.65738      169.571 
-0.000275334      2.09117      38.7882 
-8.36947e-05      5.85496     -146.636 
0.000191165      3.13081      154.253 
-0.00108590      7.84700      138.203 
-0.000637894      2.31579     -83.3046 
0.000775699      5.25178      59.8221 
0.00221584      6.12510      177.661 
-8.53667e-05      1.98600      17.8876 
0.000350436      1.68241      111.991 
-0.000162946      2.39102      128.548 
-0.000139532      5.93094      154.429 
0.000135001      2.82800      143.049 
0.000161950      3.00443      66.2505 
-0.000958566      2.42396     -26.9879 
-0.000854605      5.01889      162.251 
5.65320e-05      4.89579      160.677 
2.84551e-05      4.35437      96.0641 
-0.000194230      1.22201     -36.6824 
-5.58696e-05      5.53644      58.2908 
8.26361e-05      5.00289      91.9473 
0.000214166      4.79421      116.244 
8.25585e-05      5.31400      53.1085 
0.000709673      4.22019     -163.197 
0.000162430      1.72699      58.9793 
0.000110087      1.37201     -149.323 
0.000323207      4.18369      150.187 
-8.20107e-05      3.33318      47.3100 
0.000288097      4.48402      130.296 
-0.000143944      4.53118      100.169 
-8.25698e-05      1.98910      18.1617 
0.000108611      3.94833     -84.4771 
-0.000159866      5.00106      100.950 
0.000261702      4.34337      95.9469 
-0.000152497      1.90515      63.1660 
-0.000236595      3.63094     -124.565 
0.000264276      4.88305      160.749 
0.000242483      2.46856     -23.1376 
0.00142668      6.60867      52.3151 
-2.75667e-05     0.655210     -164.055 
-2.75472e-05     0.688186      144.462 
0.000469204      3.56770     -112.756 
7.87391e-05      1.66928      77.5457 
-0.000284431      4.09665      73.1132 
-0.000215281      3.11464      93.1288 
0.000107677      5.46527      92.5169 
-0.000158222      3.82357      109.241 
-5.43821e-05      4.27032     -31.0098 
-0.000249953      6.03954      173.440 
-7.15769e-05      5.34914     -160.108 
-0.000363322     0.696348      144.941 
-0.000249895      5.89936      107.053 
-0.000361760      1.19101      76.8972 
5.40096e-05      3.22121     -16.4096 
0.000146878      2.43614      167.675 
0.000411875      7.72592      141.305 
-0.000294788      3.02352      58.9387 
0.000223178      5.59044      179.283 
-7.96328e-05      5.19711     -149.982 
0.000471001      6.37913      119.901 
-0.000889025      2.41052     -26.8839 
0.000103206      4.86806     -139.833 
0.000483321      2.29000      15.1893 
-0.000311470      1.21400     -36.9643 
-0.000257201      1.97960      18.2519 
0.000273080      6.22866      78.7983 
-0.000129766      5.93997      154.470 
-0.000171364      3.05747     -168.874 
-0.000434714      2.46435      80.4230 
-0.000156967      6.12246      80.0300 
-0.000202690      5.34315     -159.971 
-0.000640379      4.99490     -40.2902 
-0.000909368      3.25859     -98.8264 
-5.01914e-05      1.92899      118.824 
7.85954e-05      3.20002     -22.7989 
0.000154265      1.36341     -149.108 
7.89524e-05      3.76431     -163.009 
0.000446505      1.40431      165.568 
-5.24504e-05      5.64022      90.5079 
7.70793e-05      5.00324      92.0618 
0.000345820      5.93137      150.063 
-0.000219641      4.25660     -30.9638 
-0.000428908      5.85212     -146.500 
0.000124408      6.03810      142.807 
5.19911e-05      4.06596      176.898 
0.000634160      3.23080     -16.3595 
-0.000173895      3.70937     -50.6889 
-7.04980e-05      5.31279      101.289 
0.000454122      5.46484      92.4121 
-0.000163543      3.33997      47.1840 
-0.000127198      6.05030      118.641 
-7.63621e-05      1.85076     -148.027 
-2.58627e-05     0.645601     -163.811 
4.98210e-05      3.28892      161.014 
-0.00128069      2.09898      38.6172 
0.000413677      2.02556     -120.236 
0.000144964      1.35074      7.23024 
5.07796e-05      4.47558      168.138 
-0.000241707      5.65032      90.6084 
-0.000323074      4.30847     -157.482 
0.000100546      3.75474     -162.965 
0.00123704      1.31848     -22.2856 
5.04041e-05      2.19367     -47.2168 
2.56350e-05      5.31202      52.9575 
0.000309413      4.05597      176.891 
0.000118412      7.55227      143.616 
0.000491127      3.26676      161.066 
-0.000285840      6.79889      129.450 
-0.000263020      6.12420      79.9378 
-0.000775976      1.20603     -37.2500 
-0.000191636      5.20578     -150.037 
-4.99900e-05      2.38481      128.360 
0.000371251      3.20924     -22.7297 
0.000391644      6.31276      124.219 
0.000880647      3.83565     -98.8484 
-0.000413930      3.38080      175.419 
-0.000202792      4.01214      53.6156 
-0.000387240      4.01530     -29.0546 
-0.000234059      4.07044      142.286 
0.000361236      3.14417      154.168 
7.45749e-05      5.09902      131.820 
-0.000495882      3.67049     -15.3236 
0.000167245      1.72887      58.2405 
4.91409e-05      4.41322     -120.051 
9.64140e-05     0.568858     -79.8753 
0.000143290      3.50408      160.841 
0.000262504      3.45059      121.249 
0.000623722      4.87032      160.821 
-0.000215195      5.94899      154.512 
-2.48334e-05      5.36004      165.964 
4.92657e-05      4.80318      116.192 
7.28385e-05      7.17079      145.224 
-0.000190946      6.05510      118.724 
0.000120741      1.35484     -148.891 
-9.66327e-05      1.55081      125.022 
-4.79470e-05      3.82029      109.099 
0.000242978      5.01360      92.1719 
0.000224813      4.41977     -111.224 
-0.000319293      3.51216     -36.3152 
-4.86859e-05      1.84228     -147.863 
-0.000612683      5.34792      166.042 
4.85176e-05      4.87295     -52.0013 
0.000120384      3.28320      60.2335 
-0.000254706      3.62527     -124.435 
0.000388991      5.08490      131.811 
9.33325e-05      4.46374      168.237 
-0.000195014      2.39885      128.399 
4.74517e-05      3.57146      43.9790 
9.55988e-05      4.54793     -168.715 
0.000194951      4.86042     -139.757 
-0.000522075      5.17650      45.7827 
0.000244279      3.74813     -162.774 
-0.000283756      1.97327      18.6186 
-0.000187171      4.09375      73.2471 
-0.000118017      1.11018     -54.1623 
0.000291913      4.79877      116.084 
0.000223708      5.98322      130.051 
-0.000221520      1.12579      108.113 
-0.000756787      4.07123     -88.5925 
-0.000335137      2.35587     -12.5024 
0.000163115      3.11610      23.8505 
2.38664e-05      2.20048     -47.0257 
4.62739e-05      1.66715      77.8812 
-0.000114552      1.83918     -147.433 
-2.37271e-05      3.38195      74.5666 
0.000159016      4.87911     -51.9087 
-0.000160555      3.12386     -75.9193 
-0.000332651      3.58208      36.4860 
-0.000287171      2.96204     -92.1283 
7.03551e-05      3.86017      175.840 
0.000967262      4.92936      55.2460 
0.000269586      2.46077     -162.743 
-4.66161e-05      2.51835     -56.4992 
0.000331049      3.28818      60.0822 
0.000912044      6.00704      101.329 
0.000135583      1.34629     -148.671 
2.33730e-05      3.00042      66.4253 
-6.87540e-05      2.79201      166.959 
0.000712184      5.60440      167.427 
4.60313e-05      5.46619     -42.0340 
-0.000141719      4.33817      132.665 
0.000616057      1.39216      165.864 
-4.60656e-05      3.70163     -50.5908 
-0.000219703      4.73466      138.939 
0.000508996      1.52319     -7.54493 
0.000354724      6.53248     -149.352 
0.000462553      4.55774     -168.739 
-0.000186730      1.55901      124.811 
-0.000259095      1.13534     -58.6900 
0.000810421      5.32528      108.503 
-0.000599932      5.01471      101.153 
0.000692102      4.34480      73.6923 
0.000358702      1.44087     -114.609 
-0.000132883      2.51557     -56.1836 
4.45794e-05      7.16258      145.178 
2.28764e-05      3.77308     -24.2554 
-0.000242423      5.95802      154.553 
-0.000154753      5.88687      106.988 
2.27944e-05      3.87088      175.703 
0.000166706      3.87005      89.7039 
-8.94726e-05      5.14566      157.971 
4.46490e-05      5.30617      120.964 
-0.000109402      6.28361      150.334 
0.000296998      3.88085      175.715 
-0.000427572      6.06867      118.761 
0.000152667      5.94004      150.112 
-0.000182537      1.92419      118.563 
-6.44637e-05      3.81084      109.148 
0.000153050      3.78630     -24.3312 
0.000314271      2.83002      143.333 
-0.000586048      5.64014      90.4063 
8.91177e-05      3.12123      23.6084 
0.000748579      2.03062     -120.480 
0.000315604      1.94535     -104.893 
-0.000384063      4.12335     -79.9437 
-0.000130487      4.24802     -31.0331 
-0.000234682      4.08708      73.0725 
0.000469754      6.37415      119.823 
8.14478e-05      1.30924     -22.4515 
-0.000168965      5.20212     -149.886 
-6.42039e-05      5.42355     -44.7759 
-0.000220314      3.69529     -50.7106 
-0.000108429      3.49607     -73.3792 
2.22991e-05     0.567186     -80.8698 
-0.000290334      3.01838      59.1014 
-0.000375035      4.68722     -56.3099 
0.000614002      1.83393      176.248 
-0.000274795      3.54634     -132.372 
0.000108100      4.19237      150.255 
-0.000254909      2.79428      166.759 
-0.000776880      4.00921     -111.509 
-0.000697546      6.78481      129.438 
-4.34073e-05      3.91004      94.1065 
0.00107400      5.29914      94.8714 
0.000201261      3.56202     -102.319 
8.59465e-05      3.57123      44.2059 
0.000189243      3.13753     -141.340 
0.000103706      5.80582      87.4333 
-8.36229e-05      3.56187     -138.073 
-0.000409557      2.01206     -6.27730 
-8.53165e-05      1.83619     -147.002 
-0.000185534      2.83210     -126.384 
-0.000609023      2.32813     -82.8445 
-0.000188503      3.61963     -124.305 
0.000592581      6.07076      156.095 
0.000187536      3.11207      23.6821 
-0.000189994      3.12631     -75.7415 
-0.000782049      6.16644      108.435 
-0.000105772      5.15868      157.910 
0.000126821      4.88528     -51.8164 
-2.16464e-05      5.35572     -175.610 
0.000178927      1.58902     -28.9846 
2.15880e-05      3.49464      160.787 
-0.000198281      4.75096      58.2503 
0.000353064      5.08615      87.1826 
2.15065e-05      5.08709      98.5920 
-0.000293402      2.51002     -56.3732 
2.14817e-05      3.95218     -118.900 
0.000165012      1.33776     -148.449 
-0.00106182      3.25707     -98.6525 
-0.000102774      2.86693      132.314 
-0.000167179      2.31078     -119.560 
0.000203272      3.19953     -61.4324 
-8.30639e-05      5.33580      166.120 
-0.000271683      2.46270      80.6524 
-6.34751e-05      4.26808      126.521 
4.20054e-05      2.29706      14.8832 
-4.22437e-05      3.67306     -87.6595 
0.000101915      2.99643      66.6005 
-0.000888534      7.33592      123.603 
-0.000102183      5.84440      147.153 
4.19292e-05      4.51868      130.423 
4.15588e-05      7.53024      143.587 
-0.000283347      6.62333      153.744 
0.000496040      2.47032     -162.812 
-0.000161082      1.49913     -17.4680 
4.11569e-05      5.30103      120.871 
2.11488e-05      1.66508      78.2177 
-0.000280043      5.96705      154.594 
0.000350416      5.79583      87.4289 
-0.000198120      4.06254      142.199 
-0.000299573      1.79011     0.640151 
0.000133700      3.83412     -98.7007 
6.21997e-05      1.59778     -28.8108 
-4.13812e-05      5.36278     -176.044 
0.000141677      5.07078      131.802 
-0.000100047      3.16185     -26.8892 
2.09156e-05      6.04607      142.865 
7.92754e-05      4.04545      177.024 
-0.000140534      4.60165      157.782 
-6.16884e-05      5.88396      106.895 
-0.000143164      4.28803      126.656 
-0.000197632     0.704557      145.408 
0.000251697      5.92639      150.147 
0.000313219      4.17873      150.306 
0.000138309      3.70653     -3.40277 
-0.000271163      4.23430     -30.9870 
-0.000546561      5.29273      84.6880 
4.02306e-05      2.18634     -47.0388 
6.15618e-05      5.97679      129.977 
-0.00120267      5.65022      90.5070 
8.19177e-05      3.80865     -24.3444 
-0.000263958      3.49894     -73.2223 
0.000443240      6.29886      124.195 
0.000100249      3.56393      44.5453 
-0.000875665      3.57405      36.5813 
-2.06778e-05      3.04961     -168.653 
6.12085e-05      4.79438      115.977 
4.08344e-05      5.91725      115.742 
0.000146828      3.67642      138.418 
0.000135642      3.57158     -112.904 
0.000658433      4.17005      150.238 
-0.000250568      3.77767      163.388 
0.000322120      4.79354     -122.563 
-0.000119486      3.66231     -87.9658 
2.04929e-05      3.10696      23.9250 
-0.000440941      2.97168     -91.9284 
-0.000467487      2.35372     -12.2648 
-0.000118835      1.83330     -146.570 
-0.000243935      4.74220      139.019 
0.000114900      2.85890     -99.4623 
0.000213656      3.29317      59.9314 
0.000156095      5.96270      129.966 
4.02892e-05      4.53927      130.533 
-0.000854019      4.13320     -79.9679 
-0.000193729      3.13847     -75.6095 
-0.000648126      2.31573     -119.776 
-0.000345855      1.13877     -59.3814 
4.01744e-05      4.90552     -51.7050 
0.00100867      5.59247      167.505 
-2.01521e-05      5.06463      112.768 
-0.000170501      5.16795      157.952 
0.000132658      3.13517      154.089 
-7.80280e-05      5.87149      106.830 
0.00123487      4.85759      160.894 
0.000118078      3.82188     -24.4191 
-0.000492819      4.02404     -28.9855 
-3.96686e-05      1.67586     -82.1117 
-0.000863581      1.20000     -36.8699 
0.000471174      4.80337      115.925 
-0.000303687     0.857030      70.9308 
-0.000217208      3.52614     -36.3499 
-0.000221548      4.08418      73.2067 
-0.000298468      3.55308     -132.491 
9.72464e-05      5.81378      93.9452 
5.59055e-05      2.30673      14.8194 
9.62824e-05      3.73858     -162.728 
0.000250481      6.24911     -158.897 
0.000180109      4.34442      96.0780 
-5.88941e-05      3.88155      67.2666 
-1.98725e-05      4.30202      126.683 
-0.000515676      5.02681     -124.955 
-0.000190187      3.61400     -124.174 
-0.000247577      4.30800      126.790 
-5.67792e-05      4.65382      111.161 
-1.97241e-05      5.36210     -176.150 
-1.97012e-05      3.49497      168.111 
0.000189351      3.13600     -141.083 
0.000112805      7.52219      143.541 
9.41106e-05      5.92160      115.829 
-0.000318575      3.57013     -138.406 
5.78724e-05      4.89147     -51.7244 
-0.000802198      2.50320      112.056 
-5.72118e-05      4.81374      49.1276 
5.68030e-05      4.42340     -111.344 
-0.000438641      4.43630      175.086 
0.000817886      4.45897      58.9481 
0.000220084      3.89082      175.726 
0.000400741      5.60683     -144.949 
0.000791906      3.86028     -77.5839 
3.83845e-05      2.47588      173.506 
0.000165559      1.32925     -148.223 
0.000187336      3.09782      24.0000 
0.000277070      1.32740      173.946 
3.16790e-05      4.55988      130.642 
-8.83863e-05      4.69554     -56.3776 
5.77825e-05      6.18159     -168.617 
5.37137e-05      5.45444      92.3116 
3.85563e-05      3.29820      53.7555 
-0.000270387      6.79011     -145.561 
0.000149425      3.18597     -61.5044 
0.000444526      1.53310     -7.49586 
-0.000112146      5.85280      147.206 
-0.000170293      4.07100     -88.7332 
-3.83213e-05      6.09971     -175.392 
5.63599e-05      4.58050      130.751 
0.000203476      3.51689      47.1893 
-0.000560998      1.96703      18.9876 
0.000359936      1.38004      166.165 
0.000319600      6.17377     -168.508 
0.000111263      5.06412      131.718 
-0.000109883      5.00899     -40.3035 
-3.80557e-05      7.84034      138.257 
-0.000444240      6.63230      153.783 
-0.000112240      1.93869     -33.8540 
0.000165171      3.74258      104.705 
0.000313591      5.45404      92.2066 
-3.75673e-05      4.31771     -157.533 
-0.000129816      3.65197     -88.1170 
0.000162176      6.60898      151.535 
0.000149530      3.84423     -24.4316 
-0.000385526      4.68168     -56.4118 
-0.000170390      4.59240      157.735 
-3.77715e-05      2.89836     -9.33233 
0.000272013      1.43673     -114.246 
-0.000647624      1.50867     -17.3540 
-3.66026e-05      3.79812      109.055 
0.000127349      4.11175     -125.198 
-0.000595415      3.75073      24.2417 
-0.000108198      3.18421     -26.8869 
-3.75027e-05      3.84662      38.9855 
-0.000208880      3.88542      67.1306 
3.73861e-05      4.60114      130.858 
-0.000648133      1.78011     0.643747 
-0.000145812      4.70239     -44.5692 
3.73060e-05      2.99125      66.3487 
-0.000251005      5.98941      154.590 
-1.87611e-05      1.82497     -146.397 
0.000209509      5.81310      93.8469 
-0.000122357      6.21258     -154.342 
-5.55486e-05      6.08975     -175.385 
7.25710e-05      4.89767     -51.6325 
0.000160899      5.95628      129.892 
-0.000109337      5.85615      106.671 
-0.000178246      4.04851      142.224 
7.09857e-05      3.30412      53.6156 
0.000162745      3.90288     -39.0725 
-0.000281545      7.82622      138.263 
0.000277150      4.79893     -122.663 
-0.000238448      4.26354      107.330 
0.000476410      1.57544     -28.8427 
0.000158811      3.69655     -3.41197 
0.000241347      4.19634      161.522 
-5.48693e-05      3.36595      86.5936 
-0.000178036      2.88849     -9.36449 
-0.000578175      4.06079     -88.8712 
0.000124992      6.89725     -152.358 
-1.85067e-05      1.83052     -146.136 
0.000320732      6.16578     -173.013 
-0.000107238     0.712811      145.864 
-5.37357e-05      1.67451     -82.4506 
-0.000403147      4.26279     -108.180 
-5.43788e-05      4.05464      142.113 
0.000227889      2.46483      173.711 
-3.64348e-05      5.17672      45.9392 
-0.000215151      2.82618     -126.221 
-3.64079e-05      3.85440      38.8920 
0.000566208      3.29820      59.7811 
-0.000381726      1.95256     -33.9342 
-3.64067e-05      1.82222     -145.961 
-0.000172718      4.50398      148.251 
-8.64605e-05      5.05541      112.812 
-0.000379729      1.67705      169.695 
-0.000297277      3.14097     -75.4328 
0.000142188      6.36918      119.745 
-7.09140e-05      6.79836     -145.609 
-1.82130e-05      4.32200      126.817 
0.000186260      4.85279     -139.680 
0.000899758      3.14379     -141.198 
-8.90500e-05      6.07978     -175.377 
0.000286381      4.36024      111.387 
1.81429e-05      5.72462      87.6974 
5.31029e-05      2.27754     -30.6186 
0.000428017      3.87982     -24.5173 
-0.000241949      4.32800      126.923 
-0.000157105      3.60839     -124.042 
3.55794e-05      4.62180      130.964 
-0.000157852      7.08314      129.443 
0.000203527      1.34015      142.275 
0.000341828      7.66035      136.428 
-0.00129334      4.35657     -41.5571 
5.36056e-05      7.05864      136.263 
-0.000104507      3.78725      163.431 
0.000354243      1.37437      51.7959 
-5.17874e-05     0.806598     -132.990 
-0.000153513      3.36656      86.4237 
-1.78840e-05      5.84932     -146.364 
-0.000203815      3.64166     -88.2691 
-3.54387e-05      3.86219      38.7988 
0.000229777      3.20433     -61.2754 
-1.78161e-05      5.18645      123.598 
0.000154726      5.72423      87.7974 
3.49939e-05      2.83805      143.453 
3.51246e-05      2.98726      66.5244 
3.49926e-05      4.03496      177.159 
8.63502e-05      5.93933      115.961 
1.77644e-05      3.92451      33.5686 
6.90747e-05      3.10292      23.7563 
8.51902e-05      7.15687      145.244 
1.77401e-05      3.73202     -162.536 
3.51544e-05      5.64139      81.5395 
-8.61349e-05      6.20825     -154.426 
-5.15425e-05      4.65022      111.046 
6.64436e-05      3.67143     -171.384 
0.000153155      3.52321      46.8402 
-6.90298e-05      5.86663      147.177 
-0.000104046      5.84086      106.511 
0.000104104      7.05142      136.207 
-6.94433e-05      3.65821     -15.2139 
-1.76031e-05      4.80720      49.2177 
-0.000368174      2.50727     -56.0564 
0.000287692      3.09377      23.8309 
-0.000134636      6.25250      162.405 
3.50062e-05      3.84173      85.5212 
-0.000295582      1.71642     -100.066 
0.000347519      6.39414      59.8661 
0.000112708      3.55225     -102.354 
0.000199814      3.92734      33.3664 
-3.49271e-05      6.31602      75.3257 
-1.75142e-05      3.40154      175.278 
0.000209671      5.09566      87.3004 
-0.000501694      4.22573     -31.0568 
1.74457e-05      7.50821      143.557 
0.000213826      5.05000      131.709 
-3.43722e-05      3.12463      93.1188 
-0.000190272      2.79659      166.560 
0.000198871      4.11752     -125.311 
0.000180908      6.24605      148.753 
-1.73605e-05      5.70817      142.688 
0.000556055      3.89513     -39.1652 
0.000224321      3.14854      154.005 
0.000148898      4.56561     -168.887 
-0.000495784      1.99111     -6.05419 
-4.80026e-05      5.35854     -160.145 
-6.78126e-05      6.06066     -175.268 
-1.72821e-05      3.86069      39.0075 
-1.72493e-05      1.81959     -145.524 
0.000558651      6.38283      119.778 
3.42898e-05      1.43178     -114.775 
0.000114821      4.90389     -51.5409 
-1.72372e-05      5.17722      157.993 
1.72410e-05      4.30345      171.851 
-0.000239594      3.55373     -132.263 
0.000101782      5.58271      167.482 
0.000208852      3.83338      85.2115 
-5.06816e-05      4.06389      83.7844 
-8.35365e-05      3.30775      170.253 
0.000344669      1.93830     -105.255 
-0.000198884      6.31856      75.2380 
0.000240476      4.32154     -112.589 
0.000107549      7.50017      143.512 
-6.78981e-05      3.57200      36.8057 
-0.000161672      2.34395     -12.3167 
-8.23961e-05      3.78541      108.961 
0.000325157      4.23520     -26.2020 
-1.71594e-05      6.06981     -175.370 
0.000115620      5.64287      81.4391 
-0.000219734      4.35908      132.769 
0.000474329     0.950474      91.8087 
6.67853e-05      4.64247      131.070 
0.000269843      4.58782     -31.5421 
-5.07528e-05      3.86846      38.9143 
0.000684240      4.12175     -91.6683 
0.000267505      6.61777      151.576 
-0.000242110      4.04061      142.137 
3.39284e-05      7.05454      122.496 
0.000203205      3.96093     -118.830 
-6.69089e-05      5.71613      142.749 
-6.33075e-05      5.89734      134.725 
3.32732e-05      4.29355      171.832 
-0.000465720      2.87701     -9.20040 
-0.000132276      5.99844      154.631 
-0.000253187      5.35762      166.068 
0.000763396      7.05834      136.148 
-3.34507e-05      5.18093      123.506 
-0.000257033      3.19313     -26.8058 
-0.000412427      5.01278      101.041 
-0.000143614      4.75631      139.007 
0.000162384      5.94987      129.818 
-3.35279e-05      2.57381     -176.882 
3.35992e-05      3.21840     -16.2388 
-1.68584e-05      5.29367      84.5802 
-4.99151e-05      3.50184     -73.0657 
-0.000115605      5.82561      106.351 
0.000974564      3.09095     -29.8828 
-6.54365e-05      3.66786     -15.1729 
0.000269890      3.74899      54.4446 
4.98592e-05      3.90080      175.736 
-6.30140e-05      1.55332      124.509 
-1.68021e-05      1.67720     -154.199 
-0.000539396      6.31323      165.788 
-3.32951e-05      3.79684      163.474 
-0.000587571      7.81210      138.269 
-0.000130147      7.07679      129.381 
6.59388e-05      6.45334     -151.290 
-0.000624181      5.28467      84.4620 
0.000495103      7.04074      122.471 
-0.000165165      4.67335     -56.3439 
0.000159214      5.32211      108.401 
-1.66943e-05      2.41290      128.437 
0.000347745      1.99650     -42.1579 
-0.000231172      3.47131     -11.6336 
6.45157e-05      5.80628      87.3347 
0.000963701      4.81274     -122.699 
-3.21928e-05      3.68897     -50.8308 
1.66332e-05      1.52191     -7.17171 
1.66214e-05      2.26385     -30.5297 
-0.000263269      3.60280     -123.911 
0.000503506      2.25524      65.3668 
-0.000331558      5.86001      160.978 
0.000658752      3.22800     -16.1892 
-0.000470835      6.78753     -145.444 
-0.000114087      4.98424      162.365 
-7.74880e-05     0.721110      146.310 
-6.46990e-05      3.06922     -168.727 
-0.000263126      6.05069     -175.260 
-4.92615e-05      7.46555      128.037 
-1.65009e-05      3.87625      38.8214 
0.000297479      2.46376     -162.521 
1.64949e-05      4.43420     -28.4145 
0.000199765      3.08302      28.4770 
6.40947e-05      1.37033      166.065 
0.000214276      3.69716     -3.56667 
-0.000126396      2.08154      177.797 
-9.55598e-05      4.66782     -56.4461 
-7.71294e-05      4.98727     -40.3645 
-0.00117724      4.14479     -79.8559 
1.63825e-05      5.71424      87.7935 
-0.000157550      4.34802      127.054 
0.000140349      5.95709      116.092 
-0.000308133      5.95302      114.197 
0.000332833      6.17178     -168.599 
-4.86103e-05      3.88404      38.7289 
-1.63064e-05      3.80360      163.661 
0.000216125      3.88106     -39.1440 
-1.62879e-05      4.29830     -121.878 
-0.000323970      6.08589      96.2258 
-0.000264757      6.64127      153.821 
0.000227413      4.81237      115.873 
0.000441411      5.71386      87.8937 
-0.000240760      5.34981     -175.067 
-0.000250347      7.47959      128.050 
0.000561445      6.00508      101.235 
0.000239232      4.86740      149.642 
-0.000324040      2.78582      150.306 
7.92589e-05      4.66315      131.174 
9.59918e-05      7.66759      136.480 
0.000285817      5.26460      87.6050 
-7.92393e-05      3.81320      163.704 
-1.61608e-05      6.20356     -154.302 
0.000422556      3.70786     -30.6457 
-0.000152961      3.54013     -36.3844 
1.61334e-05      3.53006      46.7218 
-0.000423915      8.57756      135.520 
0.000481695      3.90217     -24.5290 
1.61061e-05      6.97500      54.0995 
-0.000106132      3.48937     -73.1749 
-0.000184289      4.49721     -163.862 
-0.000446213      4.69766      65.0715 
0.000212855      3.00102     -115.882 
-0.000240020      3.30607      170.424 
-0.000120477      4.06498      83.6442 
0.000108267      3.53655      46.3748 
-6.26324e-05      5.72409      142.810 
-0.000227055      5.98512      154.677 
-0.000134151      2.97136     -91.7357 
-0.000151846      5.43060     -44.8508 
-0.000185083      4.08130      73.3411 
-9.32662e-05      5.81040      106.189 
1.59465e-05      3.91152      175.601 
7.57574e-05      3.31006      53.4763 
-0.000209763      3.66268     -87.8094 
-1.59182e-05      4.31390     -157.656 
-6.30306e-05      3.89185      38.6368 
0.000359419      4.46413      58.8381 
-0.000153311      4.97471      162.330 
-0.000121649      4.48189      152.349 
0.000518354      1.37277      51.2098 
3.07402e-05      6.44457     -151.248 
-4.37372e-05      2.56439     -176.647 
0.000489991      1.84610      77.1682 
0.000307160      1.54302     -7.44742 
3.14322e-05      4.22428      34.2920 
9.08397e-05      4.30488      171.719 
7.69137e-05      6.96914      54.1661 
0.000412573      4.33803      73.5285 
-3.14407e-05      3.36719      86.2538 
-0.000211368      6.32112      75.1503 
-0.000335460      4.06060     -89.0122 
0.000115103      5.68705     -159.302 
-1.57687e-05      3.70005     -146.911 
0.000196466      4.83374      104.007 
6.17161e-05      1.60112     -41.4552 
7.75150e-05      4.67398     -135.087 
0.000122661      4.91011     -51.4495 
-0.000205740      4.52399     -34.4629 
0.00115459      7.68173      136.477 
-9.14493e-05      3.07903     -168.763 
0.000520073      4.84517     -139.604 
-1.56735e-05      7.79133      138.330 
-0.000106105      4.27607      107.418 
-0.000496503      7.06272      129.369 
-1.56467e-05      4.31010     -157.779 
0.000174929      5.82308      93.8403 
3.11081e-05      5.32603      52.9365 
1.56233e-05      5.81334      123.991 
-1.56105e-05      3.71140     -147.209 
0.000301880      4.12331     -125.425 
-0.000274883      3.75932     -113.018 
-4.54857e-05      4.25643     -108.350 
7.62850e-05      5.64437      81.3387 
-0.000176162      4.65948     -56.3781 
-0.000107414      7.77721      138.336 
0.000132407      4.57542     -168.911 
-0.000192924      4.03764     -29.0408 
-4.55251e-05      3.26497      93.1604 
-9.18115e-05      3.89967      38.5451 
0.000117351      3.93022      33.1644 
-4.60521e-05      5.22074     -147.436 
0.000161110      8.40139      134.132 
-0.000496952      2.30705     -119.899 
0.000150196      4.22623     -26.2619 
0.000187122      4.11655      24.6974 
3.01903e-05      4.83132      103.892 
0.000177658      5.92939      129.731 
0.000117598      3.18022     -105.129 
-7.43409e-05      3.35789      86.0724 
-3.02534e-05      6.08225      118.798 
0.00116990      4.12205     -91.8073 
-0.000306193      1.77011     0.647383 
-3.05567e-05      4.31560     -157.952 
-7.58281e-05      3.82280      163.746 
4.57797e-05      6.05234      53.7360 
4.46032e-05      4.20583      161.565 
-0.000103960      3.71981     -147.293 
4.45122e-05      4.66974      131.267 
-3.06199e-05      4.64562     -56.4126 
1.53379e-05      2.25016     -30.4397 
0.000102883      1.33843      173.565 
-1.53095e-05      5.02436     -125.113 
-8.93935e-05      4.58468     -56.6565 
-0.00143903      5.03012     -125.207 
-4.31128e-05      3.77270      108.867 
-0.000116442      2.32691     -83.0888 
4.42737e-05      5.80775      123.909 
-8.81180e-05      5.73206      142.870 
-0.000147506      1.17175     -111.529 
-0.000488526      7.75645      138.397 
3.00788e-05      5.33206      52.8507 
7.47668e-05      4.66690     -135.000 
4.40853e-05      4.34729      111.312 
1.51170e-05      3.54318      46.0292 
1.50918e-05      1.35823      166.373 
2.93196e-05      6.97278      53.9847 
0.000569530      6.05826      53.6597 
-0.000366619      4.76386      139.086 
-0.000172547      4.03272      142.050 
-0.000197897      4.36203      127.080 
0.000166390      6.23751      148.705 
-8.67843e-05      5.21771     -147.285 
-0.000128282      6.41711      162.497 
-4.44723e-05      5.94024      122.138 
-0.000102853      3.90749      38.4537 
-4.48141e-05      7.48575      128.110 
-0.000115701      2.07155      177.787 
2.92049e-05      4.02497      177.152 
1.49810e-05      4.44299     -28.3532 
-4.44954e-05      4.31186     -158.075 
0.000571926      5.30000      94.9791 
-5.70972e-05      5.33250      133.936 
5.85969e-05      4.69046      131.370 
-0.000185244      5.79525      106.027 
0.000207390      5.81326     -135.976 
8.68769e-05      3.55681      45.3417 
1.49279e-05      3.20914     -61.1188 
-0.000228812      8.21682      137.417 
-0.000113263      3.14350     -75.2564 
-0.000413023      2.09745      39.0011 
-2.97077e-05      5.64008      90.3048 
1.48751e-05      4.33448      96.0920 
0.000115319      3.75133      54.6576 
0.000334186      1.98237     -42.1376 
4.40427e-05      5.80675      87.2361 
0.000570943      6.37787      119.700 
-2.93646e-05      1.33724      152.860 
7.12676e-05      5.84278      73.0847 
-0.000184836      6.66363      153.819 
-0.000128413      3.82962      163.931 
5.71358e-05      1.34852      166.273 
-0.000216698      7.49979      128.123 
-0.000180398      1.18600     -36.7733 
5.75488e-05      1.61524     -41.4863 
0.000606441      5.85235      73.1132 
8.67558e-05      8.07694      136.204 
-0.000390298      2.00262      10.3560 
-7.06950e-05      3.67490     -50.8532 
-7.21752e-05      4.72366     -44.4854 
-0.00103277      4.05044     -89.1512 
0.000172399      4.65988     -134.739 
0.000241700      6.52040     -149.187 
0.000140407      3.82426      85.0497 
1.47078e-05      1.72186      59.2645 
-0.000126631      4.96556     -40.4261 
0.000313781      3.85815     -77.7289 
8.49100e-05      3.22273     -61.0490 
-0.000452744     0.847585      70.7100 
0.000125127      5.33401      53.0012 
-1.46624e-05      4.62313      110.513 
0.000295968      3.92094     -99.2461 
-2.91656e-05      6.08482      96.1322 
-0.000100472      6.97316      120.795 
8.54717e-05      4.33077     -112.538 
-0.000223186      1.56157      124.301 
4.35921e-05      4.57407     -31.5008 
1.45864e-05      4.92416     -51.4310 
1.45946e-05      5.33476      108.469 
-1.45939e-05      3.67751     -15.1321 
0.000460530      4.23962     -26.3233 
2.87291e-05      4.84258      132.154 
-8.51427e-05      3.08883     -168.799 
-0.000526699      5.93493      122.057 
1.45279e-05      3.93859      33.0849 
-0.000396934      3.59724     -123.778 
9.81746e-05      5.97488      116.222 
9.81624e-05      5.10518      87.4178 
2.87794e-05      2.16541     -47.2457 
-7.02152e-05      3.53208     -36.4806 
0.000194173      4.82162      103.921 
-0.000818312      3.48111     -11.6004 
-0.000295650      2.50460     -55.7389 
-2.87371e-05      4.96215      162.405 
7.03836e-05      4.91635     -51.3584 
-9.97750e-05      6.09583      96.2156 
-7.05307e-05      4.30813     -158.199 
-2.87029e-05      6.04073     -175.252 
-0.000234764      4.16861     -47.4305 
4.20858e-05      3.40922      160.821 
-0.000264704      4.21717     -31.1269 
0.000182741      7.39030      129.895 
0.000244062      4.58260     -31.4355 
-5.58684e-05      4.49040     -163.704 
0.000124755      4.22167      34.4806 
-0.000994947      7.33039      123.538 
0.000135851      5.95370      83.0540 
-0.000496865      5.97036      114.333 
-0.000219814      3.91533      38.3627 
2.82734e-05      6.62657      151.617 
6.98476e-05      3.15294      153.841 
1.42983e-05      5.03588      131.700 
-9.69620e-05      4.47303      152.289 
0.000305799      6.12470      177.754 
1.42549e-05      5.81674      87.2409 
-0.000279618      1.96087      19.3590 
-8.29542e-05      1.33270      153.243 
-0.000366387      6.03160     -175.150 
-0.000124781      5.42351     -44.9253 
-0.000305455      6.32369      75.0627 
-6.86655e-05      2.78686      166.512 
-0.000175238      6.00748      154.672 
6.90696e-05      3.56382      45.0000 
0.000150010      4.43847      104.349 
-0.000136138      5.36733      166.093 
-4.08802e-05      4.27309      107.290 
-0.000122459      5.74004      142.930 
9.69207e-05      3.96577     -118.956 
1.41810e-05      2.44387      173.893 
-1.41739e-05      3.14014     -121.058 
-0.000162413      1.16812     -111.073 
0.000310187      5.05015     -176.367 
0.000236834      7.47814      143.483 
0.000654941      3.69926     -30.7247 
8.23512e-05      6.89262     -152.431 
0.000194941      2.15128     -47.2605 
-0.000108195      3.67349     -87.5037 
-0.000655245      6.74801      53.0112 
0.000460377      3.88892     -24.4561 
-0.000248081      7.50597      128.183 
-0.000288732      4.04638     -28.9721 
-1.40746e-05     0.853815      71.5651 
0.000108764      5.92301      129.657 
-1.40551e-05      3.68717     -15.0916 
-0.000376111      4.57083     -56.6924 
2.78192e-05      3.55013     -102.196 
-2.75581e-05      7.79798      138.275 
2.78893e-05      5.81606      123.854 
-0.000396369      8.57055      135.567 
-0.000134519      3.35859      85.9022 
-0.000109006      5.99416      154.717 
0.000108643      5.80725      87.1376 
-0.000938330      6.09693      96.3091 
0.000392591      4.65285     -134.652 
0.000423063      5.27459      87.6095 
0.000247840      3.70778     -3.71128 
0.000228060      6.21805     -143.370 
0.000185320      2.25036      65.0293 
-0.000652997      7.73570      138.459 
-0.000250842      5.02646      101.243 
0.000355621      4.32695     -112.416 
-1.39183e-05      3.13129     -75.3868 
0.000321822      6.16198     -168.581 
-0.000147668      4.06610      83.5042 
-0.000106037      6.97829      120.865 
-1.38845e-05      5.04232      112.751 
0.000196263      4.46077      58.6618 
-9.43523e-05      3.29456      170.566 
0.000118905      3.18729     -104.908 
1.38683e-05      3.56385     -112.607 
2.75424e-05      4.01498      177.145 
-0.000115715      3.49228     -73.0179 
1.38292e-05      6.32738      110.927 
8.16427e-05      5.60093      44.1320 
-2.75003e-05      3.13500     -120.901 
-0.000696450      8.23095      137.413 
0.000437294      8.40836      134.181 
-0.000315707      2.34184     -12.0777 
0.000133569      3.93314      32.9628 
6.73203e-05      4.82573      115.928 
-0.000108382      4.31264      165.223 
-1.37468e-05      5.90438      134.794 
2.74159e-05      7.38263      129.945 
-8.06180e-05      4.53224     -34.3913 
0.000234385      5.54390      66.3943 
0.000398329      2.49088     -23.1684 
9.38698e-05      6.31447      110.875 
-2.72753e-05      6.77930     -145.396 
-0.000105882      2.57437     -176.660 
0.000305897      7.38905      130.004 
-5.36935e-05      5.61678     -164.405 
-0.000638570      4.20344     -31.0806 
0.000222966      7.04611      122.540 
-1.36556e-05      3.41440      168.855 
-2.67793e-05      4.30359     -121.991 
0.000143960      2.68561      118.951 
8.07699e-05      3.87331     -39.2374 
-4.05507e-05      4.30443     -158.322 
7.93236e-05      6.96690      54.0512 
2.70056e-05      4.82846      132.146 
-3.99351e-05      5.82383     -172.204 
-0.000446649      2.31465     -83.5505 
-0.000145480      5.79250      105.932 
0.000155581      5.83305      93.8337 
0.000415595      4.33417      73.2374 
-5.28130e-05      2.06119      178.054 
-0.000243425      1.76026     0.976538 
-0.000127820      3.09864     -168.835 
0.000131726      4.92260     -51.2675 
-0.000523505      1.51822     -17.2415 
-4.03409e-05      4.02484      141.963 
-4.03341e-05      6.77676     -145.278 
-2.63739e-05      5.28371      84.5700 
1.35267e-05      3.74556      54.7824 
7.74635e-05      6.09309      156.085 
7.99961e-05      3.15159     -141.312 
1.35078e-05      4.87603      149.701 
0.000232497      1.55293     -7.39959 
-0.000131874      4.94386     -40.4882 
0.000422875      3.78630     -127.596 
-0.000129816      3.13847     -120.651 
1.34816e-05      1.32076     -147.995 
-9.07865e-05      1.32823      153.628 
-9.10651e-05      3.83923      163.973 
-1.34786e-05      7.52001      128.196 
0.000169531      3.91481     -6.45333 
-5.30296e-05      3.54607     -36.5144 
2.49635e-05      1.34837      173.613 
0.000129926      3.57095      44.6596 
0.000608887      8.08287      139.214 
-0.000468255      7.52620      128.256 
0.000167806      4.12564      24.6393 
1.34336e-05      4.33434      111.237 
-1.34402e-05      4.61963      110.396 
6.65024e-05      2.98188     -60.6841 
-3.91786e-05      3.56046     -132.382 
-1.34171e-05      4.73781     -44.4869 
-0.000105093      5.41644     -45.0000 
6.59346e-05      3.96188     -119.153 
0.000390472      5.94304      170.411 
-0.000363822      6.67261      153.857 
0.000357230      6.00314      101.141 
-2.62597e-05      2.96169     -91.9349 
-2.64171e-05      3.69682     -15.0512 
2.63873e-05      3.29462      59.5433 
0.000332057      5.60073      44.2766 
6.45381e-05      3.81608      84.7376 
1.33574e-05      3.74799      54.9955 
-9.64191e-05      5.30298      101.310 
-2.64302e-05      3.76324      108.916 
-5.18535e-05      4.61469      157.714 
0.000618665      3.15006     -141.056 
0.000139934      8.09108      136.202 
0.000295379      6.90149     -152.470 
-2.63037e-05      1.96644     -34.0133 
-5.22612e-05      4.46418      152.230 
-0.000306041      4.33454      165.162 
-0.000152290      3.14606     -75.0803 
-6.55119e-05      6.76854     -145.230 
0.000927612      3.88738     -39.2583 
-5.25250e-05      4.01868      142.075 
0.000278850      7.04420      136.150 
0.000193053      5.80775      87.0391 
1.32333e-05      3.22758     -60.8937 
1.32287e-05      3.58734     -128.435 
5.02317e-05      5.99270      116.351 
-0.000276622      4.15448     -47.4387 
0.000272693      4.92687      55.0842 
-2.63054e-05      4.29514     -158.273 
0.000153520      1.55309     -28.8754 
-5.05849e-05      4.36580      100.692 
-3.88793e-05      1.31928      153.435 
-1.31778e-05      4.35230      132.672 
-7.80295e-05      7.11720      59.1467 
2.58539e-05      2.32355      14.4549 
-0.000247549      4.38208      127.210 
0.000102619      4.80951      103.834 
-0.000177784      3.92317      38.2721 
2.58591e-05      4.62836      131.058 
8.86708e-05      4.12569     -125.231 
0.000102546      6.30156      110.822 
0.000116034      2.98679     -60.5169 
-0.000150089      2.78921      166.313 
-0.000225858      4.54614     -34.4241 
-8.79464e-05      3.66715     -50.7546 
-3.86656e-05      4.59987      110.090 
-0.000187470      4.29144     -158.397 
0.000541516      5.06013     -176.374 
-2.59252e-05      5.60715     -164.377 
0.000293016      3.00568     -115.627 
-6.39118e-05      3.28306      170.710 
-0.000183081      6.41411      162.582 
-0.000115726      5.36731     -50.1398 
0.000138218      4.42631      104.256 
3.79258e-05      4.80763      132.049 
0.000125270      4.21848      161.479 
0.000101962      3.96676     -119.279 
-1.29449e-05      4.26058      107.202 
0.000238127      6.37201     -141.691 
0.000571053      4.64583     -134.564 
-7.45428e-05      5.35522      166.171 
0.000190839      7.39548      130.063 
0.000402560      3.21562     -16.0678 
0.000149452      6.96802      136.686 
-2.57134e-05      3.53804     -36.6108 
-7.65900e-05      6.75785     -145.064 
-0.000263394      4.93625     -40.5635 
1.29084e-05      4.35093      111.435 
-2.55684e-05      2.12047      115.115 
1.28867e-05      5.81881      123.717 
-7.53421e-05      5.74802      142.991 
0.000579178      4.83756     -139.527 
-9.99874e-05      4.01080      141.987 
1.28613e-05      4.85372      149.684 
0.000123694      1.23584     -174.428 
-0.000471927      6.01652      154.713 
-0.000276142      6.16329      108.347 
0.000212361      4.40555     -44.3563 
0.000137477      3.93612      32.7615 
-0.000447313      7.11208      59.2159 
-2.56202e-05      5.43058     -45.0000 
0.000101036      5.37636      131.607 
0.000149731      6.21601     -143.241 
-5.03203e-05      1.17801     -37.0644 
-3.74205e-05      4.36767      100.821 
-8.57140e-05      5.81065      55.8724 
-5.00161e-05      4.44713      174.969 
-0.000148052      3.34934      85.7194 
0.000308018      1.84391      77.4712 
-5.05020e-05      1.98862     -33.9298 
0.000136694      4.92886     -51.1768 
-0.000369543      3.67394     -87.3479 
1.27707e-05      6.22377      148.736 
-0.000100188      4.94453     -48.4434 
5.00695e-05      4.83473      115.876 
-0.000124061      5.77741      105.768 
0.000122490      5.95250      83.1496 
-0.000148608      5.42351     -45.0747 
1.27010e-05      4.00500      177.138 
-8.58464e-05      4.30890     -122.104 
-1.26807e-05      3.70648     -15.0111 
0.000476711      3.95733     -84.6352 
-1.26788e-05      1.17392     -110.442 
8.75686e-05      3.02209     -5.12577 
-0.000568836      3.77001     -26.6330 
-0.000418554      5.37372     -50.0579 
-1.26661e-05      6.08708      118.881 
-1.26628e-05      2.28064     -107.084 
0.000217567      3.25025     -69.2789 
1.26505e-05      1.97497     -42.3322 
6.17571e-05      4.78682      131.952 
3.76071e-05      3.76065     -162.673 
3.73207e-05      3.57821      44.3206 
0.000178782      6.21522      148.688 
-0.000251688      4.26592     -108.308 
0.000123946      2.99172     -60.3501 
-0.000108956      3.76464     -112.819 
0.000243745      4.25302     -26.3843 
-0.000172709      6.74721     -144.897 
0.000207041      2.68078      118.764 
0.000117337      3.78451     -127.809 
-2.50004e-05      5.27569      84.3434 
-3.74224e-05      4.57044     -120.942 
0.000135581      3.90487     -6.46982 
-0.000300906      7.83288      138.209 
-0.000401191      6.75404      52.9435 
-1.25688e-05      8.20747      131.889 
0.000120314      3.41786      80.3999 
-2.48593e-05      4.45067      152.283 
0.000261902      7.05113      136.092 
-0.000122761      5.04020      101.444 
-3.71795e-05      6.10066      118.918 
-2.49099e-05      1.99462      10.6902 
-0.000134004      4.90750     -44.5047 
-8.48292e-05      4.59644      109.972 
-1.25376e-05      5.62374     -164.530 
0.000145695      1.96084     -42.3130 
-7.47193e-05      8.21415      131.941 
-6.24612e-05      7.53240      128.315 
1.25153e-05      4.65296     -171.347 
-2.47699e-05      2.27772     -106.844 
-1.25032e-05     0.729452      146.746 
-0.000147651      5.88167      91.3639 
6.14946e-05      7.03230      122.515 
-0.000192133      1.31484      153.825 
-0.000460044      7.72907      138.514 
0.000337593      5.84570      72.9909 
4.93499e-05      6.29222      110.854 
8.63095e-05      3.96295     -119.476 
-0.000131913      1.98116     -6.08469 
0.000111001      5.80828      86.9406 
0.000488189      6.06632      53.7157 
-0.000131406      2.49898     -55.9284 
-0.000179114      3.74574      24.4440 
3.72044e-05      5.60109      145.033 
0.000179941      6.53462      158.264 
0.000303593      7.38783      130.113 
3.65541e-05      5.91663      129.582 
-1.24641e-05      3.27159      170.854 
-1.24573e-05      4.48080     -163.668 
-0.000191689      3.13338     -120.493 
-0.000156417      5.11856      102.869 
3.64726e-05      3.18473     -104.734 
-0.000154934      4.62395      157.761 
0.000261426      6.61048      52.4367 
0.000108678      5.80607     -135.907 
-0.000220239      7.54644      128.328 
0.000414118      3.86657     -24.4440 
0.000110345      6.37292      119.622 
0.000146018      5.36973      131.527 
4.92342e-05      4.13058      24.4554 
-1.23518e-05      2.12577      98.9306 
2.46706e-05      5.83239      93.7357 
-0.000110301      8.22083      131.992 
-4.88209e-05      2.00250     -34.0075 
7.28753e-05      2.03421     -120.094 
-8.40715e-05      3.27002      171.027 
2.45563e-05      1.56285     -7.35238 
-2.44788e-05      6.77074      129.426 
1.23069e-05      6.10629      156.038 
6.08135e-05      4.79742      103.747 
-4.86740e-05      1.95144      19.4563 
2.44079e-05      6.36581     -141.762 
8.51767e-05      8.09830      136.251 
7.23786e-05      3.77020     -162.719 
0.000108062     0.950211      91.2061 
1.22796e-05      1.54175     -7.07892 
1.22781e-05      2.41754     -113.914 
0.000133427      7.04146      119.805 
2.42516e-05      2.31387      14.5167 
-8.40574e-05      2.30341     -120.239 
-0.000468341      8.24508      137.408 
0.000192080      5.84303      93.8271 
3.63762e-05      4.79784     -50.8366 
4.79175e-05      3.93224      175.478 
0.000284121      3.93046     0.874677 
9.64674e-05      5.61502      145.008 
-2.44567e-05      6.74710      125.834 
-0.000235956      2.01246      10.3048 
4.85904e-05      6.28866      110.769 
9.55734e-05      3.03205     -5.10889 
0.000132958      6.01489      101.217 
0.000107481      7.47011      143.437 
0.000188228      4.33620     -112.366 
0.000168497      5.60790      44.2053 
-4.79923e-05      2.12424      98.6641 
0.000507033      8.40119      134.228 
3.65107e-05      5.79829      86.9353 
-1.22117e-05      4.47404     -163.509 
-0.000506893      4.91456     -40.6266 
-2.43246e-05      3.65308     -50.7768 
-0.000128990      6.32627      74.9752 
-0.000144245      4.92379     -48.5404 
0.000423588      3.06863     -29.9070 
0.000649770      4.93763     -46.6413 
1.21834e-05      4.13473      24.5816 
-0.000329740      4.35643      165.102 
0.000235982      1.55168     -7.03342 
0.000165087      3.91270     -99.4142 
-2.40385e-05      3.09079     -168.617 
6.03736e-05      3.96788     -119.602 
-0.000144263      8.22753      132.044 
-6.01623e-05      3.91372      38.5684 
0.000153939      3.93914      32.5604 
0.000154694      2.99668     -60.1840 
-6.01667e-05      6.75296      125.903 
-5.99638e-05      3.14865     -74.9045 
-0.000178734      6.73662     -144.729 
0.000305545      6.27511      103.173 
0.000166893      4.13969      24.3981 
5.97329e-05      4.84373      115.824 
0.000293869      4.39841     -44.4473 
-9.44688e-05      4.70253      65.2334 
-3.58761e-05      3.43657      135.236 
0.000294940      6.38656      119.656 
0.000272221      3.89382     -6.34019 
2.40021e-05      3.94757      32.4823 
0.000237493      5.79884      86.8366 
-4.80525e-05      3.47980     -73.1273 
-7.16030e-05      3.64534     -50.6774 
-0.000142347      5.41646     -45.1496 
-0.000656212      7.55265      128.387 
-0.000190803      4.05031     -89.2927 
5.96299e-05      4.79351      132.041 
-0.000222646      6.01253     -175.039 
8.31373e-05      6.51695     -149.066 
0.000234703      6.37367     -141.818 
-3.56360e-05      4.77797      139.074 
4.73041e-05      2.24129      64.9213 
-0.000257191      5.88144      91.2665 
-2.37656e-05      3.08099     -168.581 
-0.000175980      3.59168     -123.646 
3.55904e-05      4.55337      130.547 
-4.70085e-05      6.10551      119.000 
0.000222239      8.11244      136.249 
-1.20228e-05      4.44182      152.223 
4.74302e-05      4.20900      161.436 
9.45289e-05      7.45612      126.547 
-5.87184e-05      5.81667     -171.995 
-0.000140818      4.55439     -34.3530 
1.20071e-05      1.85154      77.8404 
-0.000164827      5.10221      102.565 
0.000116819      3.46101      121.532 
5.93592e-05      4.73562     -132.347 
9.48748e-05      6.27931      110.802 
-2.38072e-05      4.45798      174.852 
-0.000105576      4.28777     -158.521 
8.23684e-05      3.84922     -155.765 
1.19710e-05      3.71841     -3.85507 
-0.000247261      5.38015     -49.9763 
0.000431470      7.04643      119.876 
8.32062e-05      7.88495      134.229 
3.55126e-05      6.20800     -143.185 
1.19568e-05      3.93487     -107.146 
-3.55427e-05      1.94538      19.8321 
-0.000198734      6.68159      153.895 
-8.20430e-05      2.02467     -33.9255 
-0.000198844      4.31422     -122.217 
-1.19374e-05      6.76693      125.922 
0.000141247      3.96415     -119.799 
-2.37920e-05      3.99676      142.012 
-1.19242e-05      4.47121     -163.632 
2.38192e-05      4.78770      103.775 
-4.66591e-05      6.98342      120.936 
-7.08922e-05      3.35010      85.5488 
3.50550e-05      5.54791      66.2997 
0.000152348      5.35561      131.518 
-0.000116313      5.21714      118.383 
0.000337583      6.01295      101.123 
3.53691e-05      1.36653      51.5366 
-2.36808e-05      2.28443     -106.531 
8.24156e-05      6.97488      136.627 
0.000302741      1.84946      78.1433 
-0.000175307      4.59019     -56.5523 
3.54712e-05      4.80560     -50.9119 
-5.83602e-05      2.77950      166.264 
2.36183e-05      2.17221     -47.0521 
-9.46056e-05      8.23423      132.096 
-8.20750e-05      6.77280      125.990 
0.000128076      3.83720     -98.9959 
3.51690e-05      1.30000     -22.6199 
-2.36256e-05      5.76238      105.604 
-0.000185998      4.92165     -44.5061 
-4.65369e-05      4.02245     -60.1845 
-0.000186946      5.52450     -133.460 
-0.000174956      5.01547     -139.609 
0.000128033      5.45331      91.9967 
-0.000268017      4.90967     -48.5506 
0.000313700      7.39428      130.173 
-4.66774e-05      3.56793      156.021 
4.67572e-05      4.15023     -34.9920 
-2.36188e-05      3.90591      38.6598 
-7.00973e-05      3.15127     -74.7289 
0.000220759      5.60772      44.3498 
-3.49735e-05      7.05638      129.307 
7.02348e-05      3.58893     -78.7527 
-0.000127763      4.47415     -24.8467 
-0.000255050      3.48313     -11.7616 
7.01454e-05      5.62894      144.983 
-0.000115899      3.48271     -72.9698 
4.69045e-05      4.77562      103.687 
2.35018e-05      4.93514     -51.0864 
-2.34857e-05     0.724017      147.407 
0.000198417      7.90607      134.283 
0.000324624      4.81815     -122.800 
-1.18054e-05      3.70000      108.925 
-2.34653e-05      3.63127     -50.6995 
-2.34321e-05      5.36493      166.197 
5.81274e-05      3.77975     -162.764 
2.34289e-05      4.29554      111.009 
1.17913e-05      3.12642      23.3670 
-0.000498111      8.25921      137.404 
5.85746e-05      4.26643     -26.4449 
-0.000324425      4.06044     -89.1533 
-3.50135e-05      3.71357     -14.8221 
-2.34508e-05      3.98888      141.923 
9.26069e-05      5.96008      83.3519 
0.000138976      6.27577      110.716 
0.000208434      5.83614      72.9622 
-4.63511e-05      5.33985     -175.058 
-0.000288865      6.72846     -144.680 
-6.94478e-05      2.51623      112.182 
-6.98436e-05      3.89659      38.9583 
-0.000128279      8.24093      132.147 
2.32539e-05      2.30419      14.5790 
4.65117e-05      2.67599      118.576 
4.64375e-05      1.22589     -174.382 
9.27182e-05      4.72889     -132.257 
3.50360e-05      4.44649     -27.8906 
3.48863e-05      4.77269      131.943 
-0.000127580      4.19488     -31.1511 
-4.64228e-05      3.69054      108.975 
-4.65366e-05      2.34955     -11.7882 
5.81272e-05      4.14879      24.3411 
-0.000104018      3.34093      85.3645 
-1.16730e-05      5.40922      49.1230 
6.93706e-05      4.93260      54.9889 
2.31582e-05      5.91026      129.508 
1.16675e-05      5.42982     -47.7618 
-0.000219248      3.76108     -26.7013 
0.000115359      3.00167     -60.0184 
0.000138620      4.40964     -26.9718 
0.000126926      6.52534      158.231 
-9.23330e-05      3.27536     -98.4270 
0.000138357      3.01040     -115.373 
4.62635e-05      5.84237      93.7293 
-2.30710e-05      1.57547      124.396 
1.16376e-05      6.50837     -149.021 
0.000195949      5.41569     -47.7690 
0.000218915      5.79940      86.7380 
0.000115226      6.53717     -146.480 
-0.000218648      7.74981      138.452 
0.000115267      6.96075      136.630 
-1.16221e-05      4.46445     -163.473 
2.31895e-05      5.72003     -179.800 
3.46467e-05      4.13697     -49.8043 
-1.16147e-05      6.75814      52.7571 
1.16035e-05      4.85273      115.773 
-8.05538e-05      5.41026      49.2724 
-5.76109e-05      5.40941     -45.2247 
-2.31612e-05      3.97485      141.948 
-2.30995e-05      4.74140      95.4461 
-5.75713e-05      3.63761     -50.5776 
-4.60706e-05      4.39609      127.235 
-1.15992e-05      4.61270      110.164 
6.90349e-05      3.59089     -78.5962 
1.15881e-05      4.75382      103.627 
2.30977e-05      4.92108     -51.1038 
-4.61771e-05      3.12832     -120.336 
0.000114960      3.88278     -6.20983 
-0.000160937      5.38658     -49.8948 
-0.000126643      8.24765      132.199 
4.59683e-05      4.50620     -36.3359 
6.90232e-05      5.28458      87.6141 
-2.31287e-05      5.53447      85.8554 
4.59737e-05      3.92771      32.8404 
6.89404e-05      2.51320     -23.1986 
-3.44751e-05      5.05911      35.6693 
1.15640e-05      3.10316      87.4142 
-5.74931e-05      3.73664      24.5074 
8.04145e-05      3.96548     -120.121 
-0.000114871      6.96544      134.360 
-3.44879e-05      3.77386     -112.760 
-3.44975e-05      5.35284      166.275 
1.15322e-05      4.28263      110.932 
0.000103346      6.38161      119.578 
3.45046e-05      4.72231      103.595 
-6.88739e-05      2.33976     -11.8382 
-1.15340e-05      1.15603     -37.2664 
1.15321e-05      5.54693     -149.922 
3.44896e-05      5.64287      144.958 
-5.73685e-05      1.54029     -17.3762 
2.29768e-05      6.15218     -168.562 
-1.15244e-05      3.45071      135.235 
-5.73859e-05      5.53376      85.9586 
5.74274e-05      4.15381      24.1586 
-5.74348e-05      3.72324     -14.7827 
5.74111e-05      7.89193      134.281 
5.73939e-05      5.34813      131.589 
-9.17937e-05      5.53138     -133.535 
-2.30010e-05      4.61091      157.829 
0.000160625      4.91663     -46.7307 
-2.29883e-05      3.88738      39.2583 
-5.73568e-05      4.60404     -56.5170 
1.15074e-05      1.04561      146.310 
-4.58643e-05      5.11635      102.760 
-3.44238e-05      4.14035     -47.4471 
-3.44008e-05      3.96698      141.859 
-3.44025e-05      2.03855     -34.0019 
-1.14983e-05      5.30103      101.204 
-3.44059e-05      6.12396      119.118 
2.28987e-05      1.29077     -22.7906 
4.58572e-05      7.91306      134.334 
3.43641e-05      3.20325     -15.9454 
4.58302e-05      4.65278     -134.826 
3.43687e-05      5.83908      72.8684 
-1.14802e-05      3.68109      109.026 
-4.58326e-05      4.18115     -31.1048 
-6.86856e-05      4.89556     -48.5608 
1.14935e-05      4.81967     -50.8946 
1.14848e-05      4.17235     -34.9470 
-3.43418e-05      3.13193     -120.085 
-2.29136e-05      4.63321      157.808 
1.14690e-05      6.20601     -143.056 
2.29017e-05      3.94046     0.872457 
-2.28701e-05      2.69119      178.297 
1.14586e-05      4.82358     -122.899 
-3.43283e-05      5.00785     -139.535 
-1.14653e-05      2.49339     -56.1187 
3.43218e-05      4.42309     -27.0285 
-2.28835e-05      4.31956     -122.329 
-2.28921e-05      3.87964      39.3518 
1.14414e-05      3.94150     -106.964 
4.57281e-05      8.40817      134.277 
-1.14457e-05      3.15392     -74.5537 
-1.14395e-05      5.05400      101.643 
-1.14461e-05      3.67784      108.878 
-1.14475e-05      6.77868      126.058 
1.14418e-05      4.70052      103.534 
1.14470e-05      5.45297      91.8917 
-3.42746e-05      8.25437      132.250 
-1.14450e-05      3.58615     -123.513 
1.14363e-05      3.05080      163.822 
-1.14344e-05      5.81808     -171.898 
-1.14311e-05      4.48322     -24.7930 
1.14264e-05      4.92736     -51.0133 
-1.14293e-05      4.62017      157.876 
1.14271e-05      4.77938      132.032 
