! Center RA: 04 18 21.28000,  Dec: +38 01 35.76000 (2000.0)
! Established model.
! Flux (Jy) Radius (mas)  Theta (deg)  Major (mas)  Axial ratio   Phi (deg) T \
! Freq (Hz)     SpecIndex
0.00677513     0.271662      96.3402 
0.000333602     0.270740      94.2364 
0.000460841     0.270184      92.1211 
0.00111976     0.270000      90.0000 
0.000919532     0.270184      87.8789 
0.000237896     0.270740      85.7636 
0.00290519     0.198493      40.9141 
0.000508271      7.21358      63.5770 
0.000396508      5.12118      51.8993 
0.000844802      7.20913      63.6482 
5.59291e-05      5.36824      64.8670 
0.000510658      5.11502      51.9875 
0.000408779      5.37249      64.7705 
9.63610e-05      7.21810      63.6834 
0.000714604      7.20361      61.6561 
0.000171655      5.46117      69.6404 
0.000372804      5.46466      69.5421 
0.000512884      5.10886      52.0758 
0.000661252      7.38436      57.3860 
0.000396892      5.49365      60.6820 
3.79889e-05      7.21367      63.7546 
0.00142391      7.19481      61.6183 
0.000716899      4.98258      59.8843 
0.000156705      5.45180      69.6039 
0.000125282      5.49855      60.5912 
6.06875e-05      7.20925      63.8259 
9.20171e-05      5.83484      61.5463 
0.000217606      7.19957      61.5483 
0.000117849      5.83961      61.4600 
0.000116716      7.38976      57.3207 
0.000193387      5.84439      61.3739 
5.38059e-05      4.93584      66.6033 
0.000110039      7.39818      57.3625 
0.000106660      5.45529      69.5054 
0.000229549      7.40357      57.2973 
0.000177834      5.84919      61.2879 
2.46767e-05      7.20944      64.0036 
9.35049e-05      5.45880      69.4071 
0.000528240      7.41199      57.3391 
0.000139187      5.85400      61.2021 
7.12784e-05      6.66323      61.3964 
0.000304924      6.65925      61.2797 
0.00161306      6.66406      61.2043 
0.000257118      4.99123      59.9419 
0.000316230      7.42041      57.3808 
0.000889889      6.66888      61.1290 
0.000104830      5.46233      69.3089 
0.000127557      5.85882      61.1164 
2.12586e-05      7.41502      57.4458 
2.05558e-05      5.35014      64.7761 
9.97252e-05      5.86366      61.0308 
0.000516798      6.67372      61.0538 
1.99213e-05      7.19637      61.2625 
0.000128774      5.35441      64.6793 
5.77343e-05      5.46587      69.2108 
0.000133132      7.19725      61.0846 
9.41835e-05      5.86851      60.9454 
9.00375e-05      5.45297      69.2718 
1.82746e-05      7.20295      61.8339 
0.000150805      7.19820      60.9067 
0.000105864      5.87337      60.8601 
3.53019e-05      7.20706      61.9415 
0.000405611      7.52758      61.2559 
0.000239091      7.21119      62.0490 
0.000127895      5.45652      69.1736 
0.000114309      5.87825      60.7750 
0.000252207      7.41739      57.2741 
4.47066e-05      4.98623      60.0413 
0.000117615      5.86952      60.7273 
3.03239e-05      5.34966      64.5367 
2.93109e-05      6.91868      62.9164 
0.000324276      7.21535      62.1564 
0.000512613      7.51881      61.2193 
4.34419e-05      7.42581      57.3158 
0.000206762      7.43121      57.2509 
6.92732e-05      5.44717      69.1362 
1.42359e-05      7.20209      61.0149 
2.70328e-05      7.20101      64.3246 
0.000162556      5.11676      52.1447 
0.000126335      7.43663      57.1861 
1.27748e-05      7.20600      61.1230 
3.68721e-05      5.43783      69.0987 
6.20112e-05      7.51487      61.1157 
0.000465789      7.51005      61.1825 
0.000198748      7.44205      57.1214 
1.20175e-05      7.22003      62.0862 
2.34114e-05      5.44141      69.0003 
8.09255e-05      7.50612      61.0788 
3.43319e-05      5.90208      58.0872 
0.000329285      7.50129      61.1457 
1.13622e-05      5.43207      68.9625 
0.000370918      6.67764      61.1704 
1.13231e-05      5.34229      65.2099 
4.49801e-05      5.43567      68.8641 
4.49098e-05      5.56389      55.7673 
1.12523e-05      7.44748      57.0568 
1.12559e-05      5.33394      65.4049 
0.000235509      7.49253      61.1088 
5.59955e-05      4.90360      58.2547 
1.12003e-05      7.50297      61.7613 
1.11912e-05      5.43928      68.7659 
1.11992e-05      7.45588      57.0986 
1.11986e-05      7.49825      61.8286 
1.11898e-05      5.33475      65.6449 
0.00102417     0.192354     -152.102 
0.000701921     0.201246     -153.435 
0.000127332      2.89000      61.9275 
0.000123910      2.89472      61.7529 
0.000236737      2.90826      61.6725 
0.000113927      2.89946      61.5788 
0.000111571      2.91302      61.4994 
0.000314277      2.91781      61.3268 
9.82562e-05      2.92262      61.1548 
9.57662e-05      2.92746      60.9834 
9.30686e-05      2.93232      60.8125 
0.00146251      2.95083      60.5682 
0.000780089      3.61780      57.7596 
0.00236278      3.62315      57.6258 
0.00177381      2.25488      56.0280 
0.00118059      2.94212      60.4725 
0.000318122      3.62626      57.8439 
0.000445754      3.65531      60.1385 
0.000391632      3.62008      57.4074 
0.000837394      3.65034      60.2746 
7.07706e-05      2.63956      59.7435 
0.00117118      2.26049      55.8178 
0.000333230      2.63093      59.6338 
0.000469207      3.61707      57.1886 
0.000632707      3.64539      60.4111 
0.000289777      3.61411      56.9695 
0.000401726      2.26612      55.6087 
0.000227926      3.61957      56.8368 
0.000152435      3.64047      60.5479 
9.32114e-05      3.61670      56.6175 
0.00117721      7.29452      56.7456 
0.00135555      7.30288      56.7887 
0.000305101      7.30001      56.6800 
0.000585618      7.36436      55.5115 
0.000256576      7.29741      56.8543 
3.52673e-05      7.29195      56.9201 
0.000131988      7.30033      56.9630 
0.000633569     0.735934      42.7974 
0.00175955     0.571402      57.1443 
0.00109969     0.563028      56.5922 
0.000550693     0.557584      57.4500 
0.00344401     0.549180      56.8886 
0.00145755      3.31210      65.7565 
0.00213777      3.30800      65.9144 
0.00114998      3.32122      65.8273 
0.000765460      3.49366      64.7552 
0.00114086      3.29888      65.8435 
0.00134278      3.50271      64.8250 
0.00192219      3.28566      65.9313 
0.00110320      3.51177      64.8944 
0.000435080      3.50753      65.0423 
8.33815e-05      3.51660      65.1111 
8.22170e-05      3.51241      65.2590 
0.000239187      3.43913      68.5080 
0.000302820      3.27246      66.0197 
0.000228049      3.43548      68.6631 
0.000365233      3.51602      64.7468 
0.000288441      3.43185      68.8186 
0.000856042      3.27654      65.8600 
0.000337072      3.42825      68.9745 
0.000203084      3.52030      64.5996 
6.52133e-05      3.51127      64.5296 
0.000373924      3.42467      69.1306 
0.000483208      3.51558      64.3825 
0.000343894      3.42112      69.2871 
5.82803e-05      3.29387      65.6136 
0.000166416      3.28064      65.7006 
0.000563263      3.51991      64.2357 
0.000109897      3.29801      65.4554 
0.000212563      3.41760      69.4439 
5.35551e-05      3.32388      64.8998 
0.000205454      3.40473      69.5424 
5.18903e-05      3.32814      64.7439 
0.000101397      3.33242      64.5884 
4.96331e-05      3.26333      65.9484 
9.79122e-05      3.41410      69.6011 
9.70964e-05      3.33672      64.4333 
0.000279524      3.40125      69.7003 
9.36919e-05      3.34105      64.2786 
4.69903e-05      3.24607      66.1988 
0.000178057      3.52892      64.3063 
0.000134568      3.34540      64.1243 
8.81367e-05      3.41063      69.7585 
4.44935e-05      3.24205      66.3605 
0.000333840      3.39779      69.8584 
4.34385e-05      3.34978      63.9704 
4.28386e-05      3.22888      66.4519 
8.44747e-05      3.34079      63.8951 
4.22816e-05      3.52427      64.0893 
0.000640078      3.53327      64.1602 
0.000121736      3.34520      63.7413 
8.06331e-05      3.22490      66.6148 
0.000227710      3.39436      70.0169 
0.000116297      3.34069      63.5116 
0.000369359      3.40718      69.9163 
3.77779e-05      3.21176      66.7077 
0.000285157      3.34516      63.3583 
0.000140064      3.20782      66.8718 
0.000461251      3.22981      73.0799 
0.000394889      3.34966      63.2055 
9.43927e-05      3.19470      66.9662 
2.97253e-05      3.17770      67.2276 
0.000343268      3.40376      70.0744 
0.000343199      3.53764      64.0144 
0.000420807      3.22692      73.2497 
0.000235733      3.16462      67.3244 
0.000278067      3.35418      63.0530 
0.00155249      8.15429      62.3036 
0.000806097      8.14965      62.3659 
0.000214966      8.23022      53.5478 
0.000400715      8.22428      53.6038 
0.000530604      8.54252      53.7606 
0.000359464      7.78701      59.9448 
0.000380880      8.21623      53.5625 
0.000424804      8.16315      62.3363 
0.00107871      7.77836      59.9079 
0.000345383      8.15851      62.3985 
0.000426878      8.22218      53.5064 
0.000297728      8.55058      53.8002 
0.000281763      8.17201      62.3688 
0.000933385      8.55649      53.7462 
0.000205409      8.16737      62.4310 
0.000559263      8.21414      53.4649 
0.000405151      8.18087      62.4013 
0.000521585      7.77473      59.8072 
0.000355017      8.18973      62.4337 
0.000221790      8.20322      62.4041 
0.000337575      8.20611      53.4234 
0.000322443      7.76971      59.8710 
0.000228337      8.56241      53.6922 
0.000267954      8.21209      62.4364 
3.58077e-05      8.22558      62.4069 
1.18704e-05      8.57047      53.7318 
0.000266078      7.78442      60.2734 
0.000170010      8.24530      61.8498 
0.000383934      7.77574      60.2368 
0.000328235      8.25412      61.8826 
0.000358794      8.26294      61.9153 
0.000486421      7.77203      60.1362 
0.000383752      8.27176      61.9479 
0.000211680      7.76336      60.0995 
0.000181902      7.76835      60.0356 
1.44854e-05      8.26707      62.0090 
0.000268624      8.28059      61.9804 
0.000400889      7.75969      59.9987 
0.000193663      8.27590      62.0415 
0.000177573      8.28942      62.0129 
0.000137625      7.75604      59.8978 
1.49854e-05      8.08258      62.3570 
1.40529e-05      8.07794      62.4198 
0.000212852      5.85485      64.3978 
8.28816e-05      5.55018      62.8809 
8.11119e-05      5.85956      64.5282 
8.03187e-05      5.54128      62.8338 
0.000154943      5.86859      64.5702 
0.000115952      5.53239      62.7865 
7.44363e-05      5.52349      62.7391 
0.000110254      5.87763      64.6121 
3.63989e-05      5.51461      62.6915 
7.12236e-05      5.51920      62.5993 
0.000206822      5.88239      64.7418 
6.92174e-05      5.51033      62.5514 
3.38800e-05      5.50145      62.5034 
9.95812e-05      5.25042      60.0656 
0.000340759      6.06092      59.4578 
0.000222935      5.89143      64.7833 
0.000159282      5.24175      60.0111 
0.000180700      5.23310      59.9563 
0.000260839      5.89624      64.9127 
2.92518e-05      5.53347      55.6781 
8.56726e-05      5.22444      59.9014 
8.53067e-05      5.52521      55.6197 
0.000139183      6.06601      59.3764 
0.000108901      5.21943      59.9964 
0.000160395      5.53087      55.5342 
0.000285621      5.90529      64.9538 
0.000298145      6.07462      59.4245 
5.22855e-05      5.21078      59.9414 
0.000148719      5.20578      60.0367 
2.54750e-05      5.52263      55.4754 
0.000145986      5.52830      55.3901 
0.000187606      5.91013      65.0827 
0.000527353      5.01198      65.4804 
6.84871e-05      5.19711      59.9816 
9.17239e-05      5.53399      55.3048 
0.000195170      6.08832      59.3913 
0.000213983      5.91921      65.1234 
8.75232e-05      5.52577      55.2458 
0.000105101      5.18846      59.9264 
0.000143748      5.53147      55.1607 
8.00394e-05      6.09341      59.3104 
0.000211872      5.92828      65.1641 
0.000112858      5.17981      59.8710 
3.90467e-05      5.53719      55.0758 
0.000148808      6.10202      59.3583 
0.000245685      5.52900      55.0165 
0.00143795      5.00289      65.4328 
0.000238521      5.93317      65.2923 
0.000233750      5.53474      54.9316 
0.000296298      6.10712      59.2776 
0.000131271      5.17116      59.8153 
6.00817e-05      5.52655      54.8721 
0.000288605      5.53231      54.7874 
0.000344473      6.52175      60.2115 
0.000246379      5.94225      65.3326 
0.000174904      5.16252      59.7595 
4.28339e-05      5.53809      54.7029 
0.000821734      5.40093      52.0692 
0.000142669      6.11223      59.1970 
1.30933e-05      5.93809      65.4203 
9.96099e-05      5.63773      68.3496 
0.000146633      5.95134      65.3728 
0.000149930      5.16756      59.6637 
0.000359478      6.52672      60.1353 
7.90905e-05      5.64703      68.3870 
7.23359e-05      5.65632      68.4243 
7.02128e-05      6.11736      59.1166 
0.000355321      5.66562      68.4615 
2.83888e-05      5.96044      65.4128 
0.000226710      5.15893      59.6077 
0.000118419      6.10878      59.0684 
0.000268980      6.19564      66.0000 
0.000260793      6.53171      60.0593 
0.000113635      6.11393      58.9880 
3.38467e-05      5.15031      59.5514 
3.36336e-05      6.11908      58.9078 
1.65850e-05      5.52327      55.1015 
0.000895907      16.5153      60.4703 
0.000299990      16.5104      60.5005 
9.01664e-05      16.5823      59.2436 
0.000118608      16.5142      60.5477 
2.92186e-05      16.5874      59.2140 
2.88141e-05      16.5788      59.1963 
0.000722151      16.5093      60.5780 
0.000138493      16.5840      59.1666 
0.000434976      16.5131      60.6252 
5.45307e-05      16.8565      61.9755 
0.000859326      16.8518      62.0055 
0.000155627      16.5805      59.1192 
9.78932e-05      16.5771      59.0718 
0.000291473      16.5822      59.0422 
0.000113719      16.5736      59.0244 
6.51634e-05      16.2648      58.2448 
8.43434e-05      16.5788      58.9948 
6.28851e-05      16.2700      58.2149 
0.000100184      16.2668      58.1664 
0.000112948      16.2636      58.1178 
7.11696e-05      16.2657      58.0394 
0.000663473      16.8471      62.0355 
3.42403e-05      16.2625      57.9909 
5.03826e-05      16.2646      57.9125 
1.63697e-05      16.2615      57.8639 
6.37366e-05      16.2637      57.7855 
4.60422e-05      16.2605      57.7369 
0.000250070      16.5856      59.0896 
1.50241e-05      16.2574      57.6883 
2.95683e-05      16.2628      57.6585 
0.000227801      16.2597      57.6099 
0.000115377      16.2650      57.5801 
1.18333e-05      16.2366      58.4734 
6.76938e-05      17.1396      59.8446 
2.28031e-05      16.2313      58.5035 
1.09832e-05      16.2261      58.5336 
 0.0580149      1.13177      62.0764 
 0.0365666      1.14529      61.8686 
0.00582557      1.15412      62.1027 
0.00285641      1.07824      61.7712 
0.00283256      1.17648      62.1280 
0.00280873      1.05589      61.7360 
0.00278784      1.18533      62.3540 
0.00276488      1.04235      61.9598 
0.00274602      1.19419      62.5766 
0.00805600      1.03354      61.6992 
0.00800328      1.20308      62.7960 
0.00260960      1.02000      61.9275 
 0.0126161      1.21198      63.0121 
0.00257368      1.02474      61.4342 
 0.0216474      1.01119      61.6608 
 0.0270005      1.22090      63.2251 
 0.0170423      1.00240      61.3895 
 0.0118148      1.01597      61.1645 
 0.0175744      1.22984      63.4349 
 0.0125228      1.00722      60.8901 
 0.0172020      1.22540      63.8531 
0.00169574      1.02956      60.9454 
0.00167346     0.993629      61.1134 
0.00326195      1.05679      60.5241 
0.00163109     0.980050      61.3429 
0.00773143      1.23438      64.0577 
0.00159030     0.971287      61.0600 
0.00308596      1.09275      60.3852 
0.00155885     0.957705      61.2940 
0.00153915      1.08407      60.1240 
0.00448307     0.944140      61.5348 
0.00147951      1.10639      60.1909 
0.00713362      1.24338      64.2593 
0.00692168      1.09772      59.9314 
0.00143515     0.935360      61.2429 
0.00545493     0.921791      61.4887 
0.00400219      1.25240      64.4580 
0.00762811      1.11140      59.7435 
0.00503780      1.26574      64.2447 
0.00500564     0.908240      61.7420 
0.00354911      1.27475      64.4400 
0.00680731     0.899443      61.4403 
0.00118954      1.11085      66.6659 
0.00233313      1.10277      59.4817 
0.00114800      1.10693      67.1412 
0.00440853      1.28378      64.6326 
0.00112957      1.11647      59.3003 
0.00220411      1.10309      67.6198 
0.00110378      1.10788      59.0362 
0.00315186      1.12161      58.8610 
0.00209578      1.09932      68.1018 
0.00791149     0.885889      61.6992 
0.00406475      1.29711      64.4227 
0.00199069      1.08632      68.3945 
0.00295035      1.12681      58.4258 
0.00638480      1.30614      64.6121 
0.00370941      1.08268      68.8865 
0.000934893      1.13208      57.9946 
0.00355871      1.14586      57.8356 
0.00266107     0.877097      61.3895 
0.00417978      1.07912      69.3818 
0.00331301     0.872353      61.9661 
0.00327408      1.15122      57.4143 
0.00557077      1.31518      64.7989 
0.00913899     0.863539      61.6543 
0.00445494      1.07564      69.8804 
0.000776523      1.16503      57.2648 
0.000761178      1.15663      56.9969 
0.00290254      1.17047      56.8530 
0.00676827      1.32849      64.5923 
0.00136963      1.18431      56.7124 
0.00453654      1.07224      70.3821 
0.00195763      1.18983      56.3099 
0.00184857      1.20370      56.1779 
0.00406019     0.849999      61.9275 
0.00709371      1.33753      64.7761 
0.00393016      1.05948      70.7099 
0.00174756      1.21758      56.0489 
0.000562623      1.23146      55.9228 
0.000552408      1.22319      55.6603 
0.00159842      1.23709      55.5392 
0.00309159     0.845339      62.5255 
0.00385393      1.05622      71.2220 
0.000515446      1.12605      56.5922 
0.00150305      1.25100      55.4207 
0.00187619      1.26491      55.3048 
0.00639450     0.831865      62.8189 
0.000479146      1.11772      56.3099 
0.00590255      1.34659      64.9574 
0.000886942      1.10386      56.4539 
0.00131425      1.27883      55.1915 
0.00326865      1.05304      71.7371 
0.00242483      1.28456      54.8253 
0.00117234      1.10941      56.0234 
0.00217910      1.29850      54.7188 
0.00640696      1.04995      72.2553 
0.00499463     0.818413      63.1218 
0.00334140      1.35565      65.1363 
0.00102744      1.11503      55.5973 
0.00315942      1.30430      54.3602 
0.00117876      1.10680      55.3048 
0.00198787      1.35148      65.5209 
0.00250465     0.813941      63.7497 
0.00194425      2.79830      66.1830 
0.00135430      1.31015      54.0048 
0.000813264      1.31826      54.2602 
0.00237512      2.79428      66.3706 
0.000522689      1.11252      54.8814 
0.00403989      1.36473      65.3128 
0.000500095      2.79029      66.5587 
0.00332661      1.32412      53.9090 
0.000941645      1.11830      54.4623 
0.000246442      2.78239      66.9366 
0.000244164      2.77462      67.3166 
0.000241774      2.77078      67.5074 
0.000237540      2.76319      67.8905 
0.000235244      2.80236      65.9960 
0.00293505     0.809505      62.8018 
0.000464704      2.75944      68.0829 
0.000231148     0.999999      73.7398 
0.000454945      2.81055      65.6235 
0.000227468      2.75572      68.2758 
0.000664234      2.75203      68.4692 
0.000223099      1.05948      72.4201 
0.000437021      2.81469      65.4381 
0.000626358     0.997246      74.2914 
0.000627772      1.12414      54.0476 
0.000426898      2.74838      68.6631 
0.000423435      2.81886      65.2532 
0.000820711      2.74476      68.8576 
0.000408210      2.83214      65.1542 
0.000398432      1.06902      72.5820 
0.000778944      2.83635      64.9709 
0.000967613      2.74117      69.0525 
0.000574914      1.11606      53.7461 
0.00218822      1.33810      53.8152 
0.000886436     0.994585      74.8459 
0.000187325      2.84060      64.7881 
0.000368767      2.64093      65.8613 
0.00305288      1.37383      65.4870 
0.000903835      2.74696      69.3219 
0.000363027      2.84965      64.8738 
0.00229624     0.800624      62.4747 
0.000692114      1.12201      53.3344 
0.00168123      2.63180      65.7722 
0.000940623      1.33004      53.5609 
0.000346555      2.86295      64.7776 
0.000173394      2.75632      69.3953 
0.000170697      2.74345      69.5173 
0.000661307      2.75282      69.5901 
0.000332761      2.87200      64.8626 
0.000621427     0.992018      75.4034 
0.000160883      2.87626      64.6822 
0.000620075      1.12801      52.9269 
0.000626481      2.76219      69.6624 
0.000615678      2.88531      64.7672 
0.00130114      2.63592      65.5740 
0.000594229      2.75873      69.8572 
0.000150423      1.09768      73.0508 
0.000290385      2.89436      64.8516 
0.000568083      1.12004      52.6185 
0.000564267      2.76812      69.9285 
0.000674446     0.989545      75.9637 
0.000813796     0.805294      61.8438 
0.000280373      2.89862      64.6726 
0.000139922      1.10725      73.2016 
0.00171003      1.34402      53.4711 
0.000269859      2.90766      64.7569 
0.000271228      2.75530      70.0524 
0.00200925      1.38293      65.6589 
0.000134246      2.81315      64.0725 
0.000643257      1.12614      52.2142 
0.000133507      2.77752      69.9993 
0.00108729      2.62682      65.4838 
0.000389966      2.76471      70.1231 
0.000258263      2.91671      64.8407 
0.000129161      2.80416      63.9832 
0.000611750     0.791770      62.1403 
0.000375777      2.77411      70.1933 
0.000369003      2.79959      63.7095 
0.000591029     0.987167      76.5268 
0.000364104      2.92576      64.9239 
0.000357971      2.93220      68.5977 
0.000121644      2.74250      70.1775 
0.000582993      1.13230      51.8143 
0.000120191      2.75191      70.2481 
0.000119245      1.12641      73.4956 
0.000117878      2.72971      70.3038 
0.000232142      2.79063      63.6186 
0.000116704      2.78352      70.2631 
0.000228613      2.93002      64.7468 
0.00185822     0.796492      61.5043 
0.000114822      2.72029      70.2328 
0.000113654      2.79294      70.3324 
0.000330147      2.94151      68.6688 
0.000330631      2.79508      63.4349 
0.000328114      2.71088      70.1613 
0.000110650      2.78016      70.4571 
0.00148032      1.33600      53.2159 
0.000109897      1.13600      73.6389 
0.000529196      1.13851      51.4188 
0.000423820      2.93906      64.8300 
0.000420948     0.984885      77.0926 
0.000313453      2.78959      70.5258 
0.000209791      2.78614      63.3430 
0.000303721      2.95083      68.7394 
0.000303519      2.69809      70.2890 
0.000103348      1.14560      73.7798 
0.000289516      2.61773      65.3930 
0.000202144      2.79064      63.1595 
0.000200409      1.39617      65.4541 
0.000294542      2.79902      70.5940 
0.000295886      1.13071      51.1028 
0.000479085      2.94333      64.6538 
0.000473046     0.982700      77.6609 
0.000196059      2.78173      63.0665 
9.82797e-05      1.15521      73.9183 
0.000906375      1.39205      65.8285 
0.000369838      2.68868      70.2172 
0.000461606      1.13701      50.7106 
0.000373299      2.78627      62.8832 
0.000277242      2.96015      68.8096 
0.000275274      2.80845      70.6618 
9.32332e-05      1.16482      74.0546 
9.24555e-05      2.79571      70.7873 
0.000348186      2.95237      64.7369 
0.000265290      2.78196      62.6060 
8.90715e-05      1.17444      74.1886 
0.000343226      2.80516      70.8545 
0.00151321     0.980612      78.2317 
0.000506803      1.14337      50.3227 
8.71607e-05      2.95655      68.9903 
0.000171678      2.67927      70.1448 
0.000253904      2.78657      62.4234 
0.000313051      2.60864      65.3016 
0.000167879      1.18406      74.3205 
0.000246197      2.96948      68.8794 
0.00101368      1.66412      62.0490 
0.000472350      2.67589      70.3462 
0.000320420      2.95665      64.5616 
0.000478931      2.78237      62.1455 
0.000316306      2.81460      70.9213 
0.000441863      1.40528      65.6235 
0.00214076     0.787718      61.1573 
8.06704e-05      2.80189      71.0477 
0.000392317      1.14215      49.6163 
7.98432e-05      1.20333      74.5778 
0.000226624      2.97881      68.9487 
7.73215e-05      1.21297      74.7034 
0.000151817      2.77824      61.8669 
0.000434030      2.94763      64.4781 
0.000509084      1.14865      49.2364 
7.53626e-05      1.22262      74.8271 
0.000501200      2.81135      71.1139 
0.000433722      2.78297      61.6853 
0.000145918      1.23227      74.9488 
0.000481281      2.66648      70.2739 
0.00130782      1.67296      62.2095 
7.22936e-05      1.34201      52.8739 
0.000142248      2.97523      69.1284 
0.000139483      1.24193      75.0686 
0.000203110      1.33405      52.6147 
0.000320040      2.59956      65.2095 
0.00107178      2.77417      61.5873 
0.000337049      1.15521      48.8607 
6.87774e-05      2.98814      69.0176 
0.000134407      1.25160      75.1865 
0.000826656      2.95195      64.3030 
0.000381309      2.98458      69.1968 
0.000323296      2.80813      71.3070 
0.000254261      1.26127      75.3027 
0.000438228      1.16181      48.4893 
0.00112172      2.66312      70.4764 
0.000296434      1.32612      52.3524 
0.000290342      1.41852      65.4223 
6.16538e-05      2.82082      71.1797 
0.000237294      1.27094      75.4170 
0.000229483      2.81760      71.3721 
0.000118239      2.80494      71.5005 
0.000346210      1.16846      48.1221 
0.000622033      1.68648      62.0674 
0.000385573      2.99393      69.2648 
0.000323811      2.59048      65.1167 
0.000274771      1.28062      75.5297 
0.000431979      2.76537      61.4887 
0.000111217      2.74722      73.9400 
0.000372826      1.17516      47.7591 
0.000317575      1.78533      61.5688 
0.000158680      1.31822      52.0869 
0.000159883      2.74447      74.1406 
0.000104934      2.65370      70.4043 
0.000103676      1.29031      75.6407 
5.20720e-05      2.83028      71.2450 
5.15933e-05      2.74175      74.3417 
0.00206805      1.14110      41.0914 
0.000398763      1.14935      79.4722 
0.00100600      2.57187      64.4313 
0.000144904      1.15122      78.9829 
7.08649e-05      1.27906      80.0958 
0.000234932      1.28891      80.1723 
0.000202125      2.57620      64.2307 
0.000225006      1.14140      78.8869 
0.000131141      2.69156      60.3871 
9.60428e-05      2.85044      74.7449 
0.000278616      2.96998      64.4703 
3.19509e-05      1.29877      80.2476 
0.000293224      1.13455      40.7108 
9.39010e-05      2.68287      60.2816 
0.000272186      1.30050      79.8134 
0.000795564      3.02908      69.1119 
0.000559329      2.85748      74.9911 
3.05820e-05      2.68784      60.0965 
3.02282e-05      2.67918      59.9899 
8.83299e-05      2.67052      59.8825 
0.000301061      1.13159      78.7894 
0.000816598      2.67255      70.5481 
0.000110392      2.96530      64.2127 
2.87669e-05      2.66188      59.7745 
2.85303e-05      1.30862      80.3217 
8.46453e-05      2.62909      58.8494 
0.000455169      1.31034      79.8907 
0.000162243      2.61721      58.4355 
0.000831731      1.13358      78.2936 
2.62906e-05      2.71389      60.4122 
9.98794e-05      2.78442      73.5176 
0.000225849      2.60547      58.0179 
0.00107446      1.12699      41.0424 
0.000307143      2.72259      60.5161 
0.000320814      1.31848      80.3948 
0.000784828      2.97431      64.2965 
0.000249414      2.86458      75.2361 
0.000315345      2.60233      57.7145 
0.000375537      1.32019      79.9669 
6.75428e-05      2.77200      73.6571 
4.34749e-05      2.72753      60.3333 
0.000242817      1.32834      80.4668 
2.15022e-05      2.75683      73.9975 
4.22786e-05      1.12379      78.1901 
0.000340976      2.59388      57.5966 
7.48908e-05      2.79603      72.7315 
0.000468236      2.58089      64.5271 
7.14479e-05      2.79308      72.9274 
0.000192744      1.13358      41.4236 
4.61002e-05      2.79016      73.1237 
2.25819e-05      2.86714      75.0428 
2.24522e-05      2.72943      74.4871 
4.39663e-05      2.87680      75.0942 
8.56243e-05      2.72677      74.6896 
0.000480505      1.36781      80.7443 
0.000163360      2.87425      75.2869 
7.92709e-05      2.72415      74.8925 
5.71309e-05      3.04199      69.0031 
0.000408761      1.11288      49.0078 
0.000191331      1.11946      41.3785 
0.000124084      3.03266      68.9354 
2.18316e-05      2.81460      72.2088 
0.000104107      2.81156      72.4028 
0.000135722      2.71190      75.0414 
5.81504e-05      2.81485      61.3408 
5.62028e-05      2.88392      75.3373 
0.00282818      1.95389      39.3926 
6.42589e-05      1.42225      64.1556 
0.00116653      1.41792      64.5193 
0.00176376      1.96163      39.2072 
0.000149184      1.40890      64.3443 
0.000544947      1.40460      64.7120 
2.33191e-05      1.56080      63.7633 
  0.398863    0.0223606      26.5645 
  0.273062    0.0200000      0.00000 
0.00412341    0.0721106      56.3096 
0.00405518    0.0860232      54.4623 
0.00402797    0.0141425     -45.0013 
 0.0306717     0.357771      63.4349 
0.00793078    0.0943396      57.9945 
 0.0115301    0.0223610     -63.4352 
 0.0114942     0.108166      56.3098 
 0.0146448     0.116618      59.0361 
 0.0212193    0.0300008     -90.0000 
 0.0175541     0.344383      64.1790 
 0.0239734     0.130383      57.5286 
0.00336695     0.393573      62.7839 
 0.0311390    0.0400006     -90.0000 
0.00657835     0.331058      64.9831 
0.00389767     0.420594      61.6069 
 0.0520494     0.138924      59.7435 
0.00946693     0.429418      62.2414 
0.00937460     0.308707      65.0952 
 0.0139340     0.144222      56.3098 
 0.0309391     0.442944      61.6992 
 0.0423269     0.152643      58.3924 
0.00300355     0.299666      64.2900 
 0.0167073     0.286356      65.2248 
 0.0293427    0.0509906     -101.310 
 0.0306900     0.277308      64.3590 
 0.0100281     0.456508      61.1892 
 0.0621963    0.0500004     -90.0000 
 0.0266236     0.451774      62.3005 
 0.0193529     0.268327      63.4349 
 0.0243317     0.465295      61.7826 
0.00170265     0.478853      61.2940 
0.00647339     0.585235      56.8530 
0.00944992     0.125299      61.3893 
0.00164444     0.438292      62.8503 
0.00162522     0.290688      63.4349 
 0.0206044    0.0600002     -90.0000 
0.00159770     0.424852      63.4349 
0.00814971     0.259422      62.4471 
 0.0373739     0.411460      64.0577 
 0.0104281     0.593632      57.3807 
0.00154502     0.281780      62.5255 
0.00153842     0.420475      64.6538 
0.00148491     0.111803      63.4348 
0.00972849     0.120830      65.5559 
0.00141352     0.272946      61.5570 
0.00943730     0.607453      57.0947 
0.00970643     0.250599      61.3895 
0.00879989     0.107703      68.1984 
 0.0206795    0.0707114     -98.1300 
0.00499458     0.612943      56.3099 
0.00899857     0.117046      70.0167 
 0.0113842     0.621288      56.8214 
 0.0262939    0.0806231     -97.1250 
0.00866613     0.104402      73.3006 
0.00617546     0.626817      56.0564 
 0.0197097     0.635137      56.5601 
 0.0114245     0.114017      74.7448 
0.00236542     0.237065      62.3540 
0.00925149     0.415932      62.8188 
0.00524486    0.0921957     -102.529 
0.00300377     0.101980      78.6900 
0.00149870    0.0921950      77.4711 
 0.0103165    0.0905541     -96.3402 
 0.0119484     0.648999      56.3099 
0.000708971     0.158114      71.5650 
0.00136758    0.0824619      75.9637 
0.00203326     0.180277      70.5599 
0.00136406    0.0728011      74.0546 
0.000652579    0.0707107      81.8698 
0.00309611     0.167630      72.6459 
0.000639270    0.0608271      80.5375 
0.000627358    0.0538513      68.1984 
0.00752295     0.101981     -101.310 
0.000617927     0.434165      61.0735 
0.000614868    0.0509899      78.6899 
0.000602867    0.0499997      90.0000 
0.000596774     0.155241      75.0685 
0.000594873     0.493963      58.2405 
0.000592397    0.0399991      90.0000 
0.00343543     0.662872      56.0702 
0.000586418     0.407062      62.1759 
0.000581016    0.0412302      104.036 
0.00112978     0.513127      56.9293 
0.00113728    0.0538513      111.801 
0.00220354     0.164924      75.9637 
0.000566680     0.499299      57.2648 
0.000559313     0.384707      62.1027 
0.000554974    0.0761575      23.1981 
0.000548180    0.0583092      120.964 
0.00517553     0.671193      56.5467 
0.00358749     0.518652      56.0035 
0.00106515    0.0565679      135.001 
0.00104449     0.344818      60.4612 
0.000533332    0.0854398      20.5556 
0.00307351     0.114018     -105.255 
0.000518723    0.0640310      128.660 
0.00150755     0.152970      78.6900 
0.000513505    0.0824620      14.0360 
0.00100386    0.0640307      141.341 
0.00380957     0.123694     -104.036 
0.000492709    0.0948681      18.4346 
0.000486776     0.358468      59.8586 
0.00234148    0.0721105      146.310 
0.00666120     0.685054      56.3099 
0.00139290    0.0921953      12.5285 
0.00264172     0.151327      82.4053 
0.00273744     0.524309      55.0975 
0.000901022     0.349857      59.0362 
0.00504529     0.136015     -107.103 
0.00172551    0.0761575      156.802 
0.000859668     0.101980      11.3097 
0.00208351     0.530094      54.2110 
0.000829252    0.0806222      150.256 
0.000803109    0.0905538      6.34006 
0.000410768     0.355105      57.6525 
0.00912979     0.693397      56.7682 
0.00373483    0.0854397      159.444 
0.00114960     0.100499      5.71047 
0.00155628     0.522015      53.5691 
0.00505138     0.148661     -109.654 
0.00181383     0.150333      86.1859 
0.000382203     0.360555      56.3099 
0.00146066     0.536003      53.3439 
0.00138661    0.0900000      0.00000 
0.00300973     0.528015      52.6960 
0.000355149     0.366196      55.0079 
0.00489193    0.0948681      161.565 
0.000330058     0.372021      53.7461 
0.00536312     0.161555     -111.801 
0.000642807     0.100000      0.00000 
0.00116222     0.140357      94.0856 
0.000311776     0.378021      52.5238 
0.00372702     0.534135      51.8428 
0.00175556    0.0905539     -6.34052 
0.00286580     0.707248      56.5346 
0.000825750     0.150000      90.0000 
0.000285843     0.390512      50.1944 
0.000271948    0.0921953      167.471 
0.00838616     0.701783      57.2157 
0.000789290    0.0824622     -14.0364 
0.000265780     0.396988      49.0856 
0.00251631     0.174643     -113.629 
0.00193032     0.104403      163.301 
0.00283392     0.540370      51.0090 
0.000251856     0.403608      48.0127 
0.00160182    0.0921955     -12.5290 
0.00135704     0.548178      51.6666 
0.00226391     0.101980      168.690 
0.000888390     0.141421      98.1301 
0.000238220     0.424499      46.9091 
0.000235555    0.0854404     -20.5566 
0.000234546     0.170881     -110.556 
0.00177673     0.183848     -112.380 
0.000454042     0.431393      45.9391 
0.000225430    0.0670822     -63.4350 
0.000221159    0.0728018     -74.0547 
0.000421787     0.438406      44.9999 
0.00141293     0.196978     -113.962 
0.000208164     0.474341      71.5650 
0.000965199    0.0806231     -82.8750 
0.000602078     0.100499      174.290 
0.00185842     0.554436      50.8560 
0.000968501     0.471274      72.7185 
0.000957597     0.445533      44.0905 
0.000730826     0.101981     -11.3101 
0.000193400     0.100000      180.000 
0.000371251     0.546717      50.1944 
0.00181849     0.210238     -115.346 
0.000732613     0.116619      149.036 
0.000551378     0.100499     -174.289 
0.00118244     0.468401      73.8865 
0.000177152     0.160312      93.5763 
0.000346014     0.110454     -174.805 
0.000670785     0.452769      43.2100 
0.000174291    0.0824626     -75.9638 
0.00265308     0.696419      57.9074 
0.000172300     0.101980     -168.690 
0.00175351     0.219317     -114.228 
0.000804807     0.111803     -169.695 
0.000167532     0.459674      44.1186 
0.00237485     0.560803      50.0636 
0.000327129    0.0905541     -83.6598 
0.000327838     0.122066      145.008 
0.000471478     0.104403     -16.6997 
0.000156350     0.170293      93.3665 
0.000302685     0.466905      43.2643 
0.00115192     0.465724      75.0686 
0.000584024    0.0921957     -77.4712 
0.00105476     0.125299      151.390 
0.00114207     0.114018     -164.744 
0.000435595     0.460108      42.3574 
0.00152595     0.232594     -115.463 
0.000145192     0.111803     -10.3050 
0.000280586     0.180000      90.0000 
0.000925429     0.715611      56.9761 
0.000370830     0.121655     -9.46246 
0.00111906     0.467546      41.5317 
0.000611295     0.644980      60.2551 
0.000260028     0.114018     -15.2555 
0.000261583    0.0948686     -71.5651 
0.000633455     0.117047     -160.017 
0.000381121     0.463248      76.2637 
0.000252671     0.120830      155.556 
0.000978464     0.574891      49.9392 
0.00110248     0.241661     -114.444 
0.000193261     0.425793      80.5377 
0.000362167     0.180277      93.1798 
0.000822300     0.734982      56.0937 
0.000245666    0.0984889     -66.0375 
0.000242939     0.424264      81.8699 
0.000582823     0.126491     -161.565 
0.00187776     0.856154      75.8014 
0.000344285     0.104404     -73.3009 
0.000442695     0.413037      83.0470 
0.000667241     0.246983     -111.371 
0.000336599     0.567274      49.2891 
0.000323561     0.181108      96.3402 
0.00139702     0.130000     -157.380 
0.00169869     0.760263      54.6375 
0.00108063     0.475079      40.7320 
0.000109192     0.123693     -14.0366 
0.000921828     0.581377      49.1849 
0.000108534     0.264764     -100.886 
0.000615239     0.107704     -68.1987 
0.00100813     0.272947     -98.4270 
0.000591169     0.411946      84.4278 
0.000504879     0.131530     -8.74629 
0.000102154     0.250600     -118.610 
0.000478136     0.182483      99.4623 
0.00329960     0.865852      75.9637 
9.92761e-05     0.255539     -120.579 
9.68129e-05     0.134164      153.435 
0.000190454     0.260768     -122.471 
0.000276538     0.134164     -153.435 
0.000708683     0.111804     -63.4351 
0.00114152     0.587962      48.4473 
0.00151575     0.271662     -96.3402 
0.00174568     0.401123      85.7108 
0.000180158     0.266271     -124.287 
0.000877115     0.653681      60.6900 
0.000338126     0.184391      102.529 
0.000260597     0.780064      53.8646 
0.00207803     0.272030     -126.027 
0.00141729     0.143178     -155.225 
0.00161894     0.786002      53.2759 
0.00167868     0.468615      39.8055 
8.43601e-05     0.138925      149.744 
0.000598758     0.116620     -59.0364 
0.000609406     0.594642      47.7263 
0.000228428     0.186815      105.524 
0.000660272     0.799061      81.3629 
0.000351261     0.152643      148.393 
0.00120498     0.270740     -94.2364 
0.000486116     0.608769      47.6629 
0.000273615     0.189736      108.435 
0.000445166     0.125300     -61.3897 
0.000395090     0.797621      82.0731 
0.000173041     0.411095      85.8151 
0.000786630     0.615548      46.9749 
0.000837875     0.141421     -8.13022 
0.00151594     0.152316     -156.801 
0.000183887     0.193132      111.251 
0.00114427     0.786383      82.6942 
0.000650016     0.812157      52.0012 
0.00230489     0.875556      76.1225 
0.000293374     0.707672      42.7094 
0.000118262     0.166433      147.265 
0.00104894     0.270185     -92.1211 
0.000585369     0.130385     -57.5289 
0.000166141     0.196977      113.962 
0.000110408     0.174928      149.036 
0.00187095     0.700928      42.1087 
0.000569151     0.818351      51.4495 
0.000616485     0.188679      147.995 
0.000149043     0.201246      116.565 
0.000692313     0.601414      47.0213 
0.00162510     0.824621      50.9061 
0.000644234     0.662419      61.1134 
0.000228694     0.136015     -53.9728 
0.000592332     0.785174      83.4180 
9.05777e-05     0.205912      119.055 
0.000956042     0.270000     -90.0000 
0.00118166     0.161555     -158.199 
0.000611750     0.144222     -56.3100 
8.43518e-05     0.210950      121.430 
4.02306e-05     0.216333      123.690 
7.72407e-05     0.222036      125.838 
0.000677967     0.861452      86.6726 
0.000562395     0.775241      83.3333 
3.69547e-05     0.234307      129.806 
0.000388799     0.240832      131.634 
0.000259778     0.183575      150.642 
0.000438385     0.270185     -87.8789 
0.000278321     0.150000     -53.1302 
8.80608e-05     0.170880     -159.444 
0.00202934      5.08623      52.5894 
0.00179494     0.482700      50.0424 
0.000963138      5.08016      52.6790 
0.000454488     0.475079      49.2679 
0.000339405     0.601082      45.6740 
0.000934738      8.75384      48.2414 
0.000861790      7.24059      63.8596 
0.00132091      9.09797      60.1379 
0.00122249      7.23619      63.9307 
0.000751683      8.76796      48.2362 
0.000707541      1.20254      51.4146 
0.000484367     0.446878      49.5377 
2.04841e-05      4.50001      71.2027 
0.000586536      4.49680      71.3233 
0.000423261      1.86625      65.6323 
0.000233513      9.29525      58.9094 
0.000378667      9.09299      60.1926 
0.000277991     0.453431      48.5763 
0.000520262      8.77463      48.1875 
0.000676621      1.21037      51.7098 
0.000249438      1.87537      65.7583 
4.28511e-05      1.86132      65.2249 
0.000249963      4.48095      71.5246 
0.000320423     0.439317      48.6913 
0.000358448      7.22720      63.8959 
2.56868e-05      1.84271      64.2693 
5.89603e-05      1.82912      63.7151 
0.000116711      9.28668      58.8775 
0.000211316      9.08802      60.2473 
2.31073e-05      4.47779      71.6460 
3.53315e-05      1.88042      66.1612 
4.66344e-05      4.46515      71.7274 
0.000106622      1.88958      66.2838 
2.26232e-05      4.37696      72.3102 
3.26658e-05      4.36440      72.3954 
1.09606e-05      1.82016      63.5757 
0.000168134     0.445982      47.7263 
3.11749e-05      1.81571      63.1527 
1.06042e-05      4.49361      71.4441 
7.04866e-05      4.35487      72.3556 
9.98668e-06      1.48486      62.7447 
1.95544e-05      1.47139      62.9125 
5.68791e-05      1.89476      66.6823 
2.80941e-05      1.46250      62.7341 
2.79951e-05      4.34231      72.4413 
2.77770e-05      8.78130      48.1389 
0.000917269      3.92237      70.1791 
0.000158580      3.92577      70.0418 
0.000334706      8.23374      68.1081 
0.000222067      7.90977      57.7566 
0.000348333      8.23747      68.0436 
0.000535068      7.90444      57.8179 
6.08785e-05      3.24575      50.3752 
0.000115293      3.23805      50.2624 
0.000214220      2.83325      61.0829 
0.000221511      8.24122      67.9791 
0.000347335      3.24446      50.1266 
0.000320267      7.89912      57.8793 
7.99369e-05      2.82843      61.2602 
0.000451898      8.24497      67.9147 
0.000145041      2.83720      61.3573 
5.89334e-05      7.76659      65.0188 
0.000277012      7.75753      64.9876 
0.000150339      2.83242      61.5348 
0.000273713      3.25088      49.9913 
0.000130677      7.91823      57.7952 
0.000128254      2.82767      61.7130 
0.000127344      7.92357      57.7340 
3.26126e-05      8.26177      67.8122 
2.14597e-05      8.26555      67.7481 
0.000194435      7.74847      64.9563 
1.04230e-05      8.27315      67.6199 
1.03013e-05      8.23002      68.1727 
1.01832e-05      8.28846      67.3642 
1.01529e-05      7.83788      58.4595 
1.00854e-05      8.22630      68.2374 
9.97191e-06      8.30927      67.1998 
1.95461e-05      7.92891      57.6729 
9.86251e-06      8.22260      68.3021 
8.38536e-05      2.82294      61.8917 
9.77878e-06      7.81891      58.5461 
1.94524e-05      8.31704      67.0728 
2.81867e-05      7.81369      58.6087 
9.58725e-06      8.21523      68.4317 
3.71828e-05      7.93426      57.6119 
9.47661e-06      8.32094      67.0094 
1.85933e-05      8.21156      68.4966 
9.30188e-06      8.32485      66.9460 
9.12215e-06      8.32877      66.8827 
1.78859e-05      8.20790      68.5615 
1.77577e-05      7.80849      58.6713 
8.95245e-06      8.34190      66.8465 
2.64511e-05      7.93962      57.5509 
5.91939e-05      3.24322      49.8778 
1.74828e-05      8.34584      66.7834 
0.000107268      2.72331      66.6356 
2.53812e-05      8.18766      68.7314 
1.70522e-05      7.95343      57.5288 
8.55170e-06      8.34978      66.7203 
2.50769e-05      7.80329      58.7340 
0.000102831      7.73941      64.9250 
2.49336e-05      8.35374      66.6573 
4.82174e-05      7.95880      57.4681 
3.15872e-05      8.18404      68.7966 
2.38481e-05      8.35771      66.5944 
2.26809e-05      2.81886      61.6166 
2.35217e-05      7.79811      58.7968 
1.58357e-05      3.25731      49.8566 
8.59796e-05      3.24968      49.7429 
2.28757e-05      8.37484      66.4960 
9.92428e-05      2.73249      66.7188 
4.41985e-05      7.96418      57.4074 
3.60746e-05      7.79293      58.8597 
2.91634e-05      8.18043      68.8619 
2.19212e-05      8.37884      66.4333 
6.21989e-05      7.72612      64.9607 
2.10701e-05      8.38284      66.3706 
3.40462e-05      7.96957      57.3468 
2.70174e-05      8.17683      68.9273 
6.84823e-06      8.38685      66.3080 
1.34160e-05      7.78777      58.9227 
1.99896e-05      8.40003      66.2730 
6.67873e-06      2.82363      61.4381 
0.00490654      3.77371      70.1726 
0.00414625      1.26463      67.6938 
0.00283498      2.97195      49.5033 
0.00214722      2.97846      49.3570 
0.00401380     0.984936      41.2954 
0.000285748      1.50659      77.3474 
0.00171007     0.976524      55.0080 
0.00254729      1.50443      77.7190 
0.000510124     0.982293      54.5301 
0.000491237      1.50233      78.0917 
0.000256684      3.77033      70.3155 
4.46409e-05      1.26846      67.2759 
-0.00503245      1.18068      63.8690 
-0.00586694     0.201246     -116.565 
0.00147827     0.382884      49.2364 
0.00141830      1.27236      66.8605 
0.00899572      1.26317      66.6823 
-0.00111039     0.614003      59.6764 
-0.000341480     0.619112      58.8775 
0.000304027     0.761183      80.1664 
0.00433333      1.18431      56.7125 
-0.000662558     0.805295      65.0261 
-0.000922680      1.02083      60.6728 
0.000215850     0.772787      79.5625 
0.00691076      1.19269      56.9761 
-0.00197501     0.196977     -113.962 
-0.000371092      1.00722      60.8901 
0.00112326     0.774661      78.8351 
-0.00446410      1.18966      64.0811 
0.000314681     0.368782      49.3987 
0.00280757     0.272029      126.027 
-0.0110762     0.801124      65.6744 
0.00186075     0.531507      48.8141 
0.000389386     0.760066      57.3554 
-0.00342900      1.02577      60.1858 
0.00343713     0.820061      74.4385 
0.000140836     0.361248      48.3664 
0.000942437     0.776659      78.1113 
0.00134911     0.754718      57.9946 
-0.00260905     0.605392      59.1985 
-0.00355430      1.37321      64.5546 
0.00175106     0.545619      48.7153 
5.31397e-05     0.347131      48.5035 
0.00106357     0.234307      39.8055 
0.000131246     0.256125      38.6598 
0.000127091     0.270185      38.9909 
2.55973e-05     0.339706      47.3859 
0.00982920      1.04202      52.8002 
0.00331819     0.290689      40.8150 
-0.00122956     0.193132     -111.251 
 0.0136053      1.32880      55.1139 
0.00269124      1.06930      65.1126 
0.000505461     0.749466      58.6429 
0.00138285     0.297321      42.2737 
0.000179589     0.910494      88.1118 
0.000328207     0.122066     -145.008 
-0.00217633     0.312570      97.3524 
-0.00209751      1.19407      63.6495 
0.000624133     0.114018     -142.125 
-0.000673415     0.591692      59.5344 
-0.00602307      1.03078      59.7035 
-0.000745799     0.858429      81.9643 
0.000719237     0.910878      87.4831 
0.000632893     0.538145      48.0128 
0.000806240     0.106301     -138.814 
-0.00293493      1.36418      64.3741 
-0.000213075     0.189737     -108.435 
0.000144824     0.114018     -52.1251 
-0.00105478     0.596825      58.7069 
-0.00196173     0.180278     -109.440 
0.000386156     0.744312      59.3003 
0.000271911     0.108167     -56.3100 
0.000393685      1.13886      73.1562 
-0.000109073     0.478539      63.9704 
0.00174547     0.280178      124.825 
-7.92449e-05     0.469574      63.4349 
-0.000906719     0.583095      59.0362 
0.000484613    0.0989950     -135.000 
0.000644338     0.524023      48.0940 
0.000344781     0.891852      59.6973 
-0.00120627     0.847172      82.5394 
0.00220033     0.829698      74.6237 
-0.000270793     0.483011      62.9044 
-0.000293683      1.18343      48.7685 
0.000971339     0.411946      84.4278 
0.00102875     0.883233      59.3700 
-0.000237293    0.0447211      26.5646 
0.000524148      1.07838      65.3362 
0.000351038      1.12929      73.0092 
0.000474892     0.296817     -122.619 
0.000414257     0.106302     -131.186 
-0.000238152     0.496487      62.4027 
0.000285224     0.276586      40.6013 
-0.000286666    0.0360553      33.6895 
0.000290975      1.28363      62.6364 
0.000141550     0.517397      48.9182 
-0.000129563     0.510000      61.9275 
-0.000490066     0.569385      59.3814 
0.00127681     0.226716      41.4236 
-0.00256807      1.34201      52.8739 
0.00102370     0.509902      48.1798 
8.70447e-05     0.403609      48.0128 
8.73108e-05     0.424500      46.9091 
5.57182e-05     0.438634      46.8476 
8.20892e-05     0.389487      48.1221 
0.000155898     0.452769      46.7899 
5.24280e-05     0.382099      47.1211 
2.55669e-05     0.367967      47.2026 
0.000405963     0.466904      46.7357 
4.42503e-05     0.375366      48.2397 
0.000217519     0.474236      47.5638 
0.000440214     0.488364      47.4895 
0.000101680     0.262488      40.3645 
-0.000679713     0.187883     -115.201 
-0.000228481     0.610573      58.3925 
0.000840741     0.248395      40.1009 
0.000534651     0.495782      48.2705 
-0.00436714      1.18512      63.4349 
0.000253588     0.788543      77.5500 
0.000109749     0.346555      43.8309 
-0.00104406    0.0583094      30.9635 
0.000713255      1.14180      72.6759 
2.60439e-05     0.125300     -151.389 
-0.000515243     0.183848     -112.380 
0.000343867     0.116619     -149.036 
0.000284965     0.730616      59.5742 
-0.00137650    0.0499998      36.8697 
1.18574e-05     0.130384     -147.529 
-0.00142380     0.857088      82.6262 
0.00133203     0.503289      49.0283 
-1.06829e-05      1.26649      74.4275 
0.000469363     0.725603      60.2551 
0.000346716     0.284253      39.2894 
-5.23948e-05      1.25686      74.3051 
0.00278648      1.13225      72.5252 
-0.00152421      1.12539      47.5208 
-0.00917753      1.35000      53.1301 
0.000407556     0.839345      74.8048 
-0.000226072     0.537122      61.0490 
0.000426118     0.413037      83.0470 
0.000208653     0.113137     -45.0002 
-0.00102042     0.730000      90.0000 
-0.000440840     0.555698      59.7436 
0.000223822     0.260768     -85.6013 
-0.000463924     0.523545      61.4769 
-0.00123928     0.167631     -107.354 
0.000733210     0.848999      74.9816 
-0.00374948     0.810247      65.9657 
0.000179634     0.874643      59.0362 
0.000387091     0.858662      75.1545 
0.000746650     0.403113      82.8750 
-0.000406552     0.160000      180.000 
-7.01541e-05     0.160312     -176.424 
-0.000305681     0.542033      60.1240 
0.000710505     0.250799     -85.4261 
0.00123870     0.496790      49.8991 
0.000254579     0.868332      75.3236 
-0.00203740     0.192354     -117.897 
-0.00250740     0.291548     -112.166 
0.000168216     0.390512      50.1944 
0.000277498     0.467547      48.4682 
0.000370808     0.481664      48.3664 
-0.00143108     0.178886     -116.565 
0.000119881     0.384187      51.3402 
1.33563e-05     0.378021      52.5238 
0.000162296     0.361248      41.6335 
1.15779e-05     0.366197      55.0080 
0.000805620     0.489183      49.1446 
2.06464e-05     0.355105      57.6525 
-0.000384080     0.174643     -113.629 
6.96721e-05     0.368782      40.6013 
0.000240234     0.111804     -153.435 
-0.000306478     0.588302      58.2011 
0.000141247     0.340147      65.6954 
3.69960e-05     0.376431      39.6107 
0.000157172     0.866083      58.6959 
3.55894e-05     0.401995      84.2894 
5.39376e-05     0.384187      38.6598 
9.08431e-05     0.341760      69.4439 
-0.000444528     0.170880     -110.556 
-0.000412503     0.574543      58.5231 
9.94013e-05     0.392046      37.7468 
0.000235615     0.108167     -146.310 
-0.000169855      1.24724      74.1808 
0.000115407     0.400000      36.8699 
0.000104997     0.345398      67.8905 
5.38101e-05     0.408044      36.0274 
-0.000492910     0.287924     -110.323 
0.000247242     0.120416     -41.6337 
-0.000793873      1.13217      47.1476 
0.000210634     0.416173      35.2176 
0.000464452     0.100000     -143.130 
-0.00114079    0.0565684      44.9999 
-0.00131795      1.18962      63.0042 
0.000206673     0.711969      60.5546 
0.000989960      1.17597      56.4451 
-0.000330667      1.03586      59.2260 
0.000613818     0.970824      65.0188 
0.00143689     0.878009      75.4889 
-0.000526250     0.579827      57.6804 
0.000198566      1.29252      62.8402 
0.000619788     0.280179     -124.824 
0.000809738     0.393192      82.6942 
0.000720312     0.490408      50.7928 
0.000150683     0.475079      49.2679 
6.20808e-05     0.380132      54.6375 
7.13205e-05     0.374433      55.8855 
6.60805e-05     0.368917      57.1715 
6.19625e-05     0.363593      58.4957 
5.80372e-05     0.358469      59.8586 
-0.000178285     0.170000     -118.072 
4.38247e-05     0.353553      61.2602 
4.16251e-05     0.348855      62.7004 
2.96041e-05     0.349285      66.3706 
-0.000412028     0.165530     -115.017 
0.000952115     0.240832     -85.2364 
0.000614957      1.12894      71.4046 
6.52342e-05     0.857554      58.3487 
5.70549e-05     0.482701      50.0424 
-0.000119237     0.599082      56.5752 
6.04614e-05     0.347850      71.5650 
-0.000314660    0.0640312      38.6597 
2.21866e-05     0.134536     -41.9873 
0.000252074     0.102956     -150.945 
-0.000339371     0.161555     -111.801 
0.000317466     0.128063     -38.6600 
-0.000156164     0.673572      49.2142 
-0.000279549     0.560803      58.8610 
0.000546637    0.0943400     -147.994 
-0.000537195     0.158114     -108.435 
-0.000136056     0.284605     -108.435 
-4.24660e-05     0.632534      50.7743 
8.29239e-05      1.21165      48.6806 
1.05062e-05      1.12579      71.8869 
-0.000139182     0.624820      50.1944 
-0.000134106     0.531507      41.1859 
0.00290557      3.18284      68.4326 
-0.00109629      3.35440      69.4040 
0.000586537      1.95819      69.9919 
0.000379541      2.65136      74.9155 
0.00126495      1.94538      70.1679 
0.000645670      3.24230      63.4349 
0.00106390      1.60863      56.4087 
0.000969723      2.66363      74.7637 
-0.000575122      3.35793      69.2442 
0.000494012      1.50881      66.1532 
0.000173441      3.22889      63.5143 
-0.00143197      3.95005      70.7853 
0.000657849      2.82392      71.6292 
0.00143161      2.69312      69.3444 
-7.25216e-05      3.36149      69.0849 
0.000264495      3.22444      63.6733 
-0.00127185      1.99324      73.3834 
0.000238995      2.82708      71.4369 
-0.000154078      3.45445      65.3639 
0.000102652      3.35418      63.0530 
-0.00187949      3.32223      66.2126 
-0.000130605      2.87684      65.1275 
0.000212200      3.36309      63.1302 
-0.000238940      3.46354      65.4328 
-0.000385812      2.87265      65.3084 
0.00128484      3.21104      63.7541 
1.47967e-05      1.92595      70.9065 
0.000645055      1.60312      56.7064 
0.000341075      1.91003      71.3753 
0.00115477      1.78718      58.2665 
0.000174945      1.97101      69.8182 
0.000332091      3.37202      63.2070 
0.000206344      1.49967      65.9987 
-9.24043e-05      2.91611      62.6441 
-2.72685e-05      2.87759      65.5725 
-0.000156133      3.47264      65.5014 
-0.000265711      2.87346      65.7541 
0.000247759      1.98386      69.6468 
-0.00111268      2.92072      62.4699 
-0.000157720      3.48174      65.5697 
-0.000273433      2.86937      65.9361 
0.000685544      2.69666      69.1455 
-0.000151592      3.49084      65.6375 
0.000192648      1.99672      69.4775 
0.000376676      3.38095      63.2834 
-0.000226466      3.49996      65.7051 
0.000127184      2.67327      74.8201 
0.00133280      1.90686      71.6601 
0.000830598      3.18653      68.2654 
-0.000279732      2.86531      66.1187 
-0.000720778      3.50907      65.7723 
9.42699e-06      1.99324      69.7467 
0.000286250      2.00609      69.5777 
-9.86154e-05      3.35090      69.5640 
-0.000642907      1.98366      73.3008 
-0.000116561      1.61137      61.0490 
-0.000546526      2.86128      66.3018 
0.000191074      2.82078      71.8220 
-0.000496458      3.51820      65.8391 
-0.000713061      1.62012      61.2202 
0.000773885      3.19583      68.3318 
0.000282385      1.49466      65.4926 
0.000757845      2.67591      74.6134 
0.000410057      1.62459      65.6436 
0.000279230      2.01547      69.6769 
0.000814493      1.61697      56.6048 
0.000581823      3.38988      63.3594 
6.97073e-05      2.81768      72.0152 
-3.45658e-05      2.86644      66.5652 
-0.000516071      2.63501      73.0092 
-0.000745395      2.85727      66.4854 
-0.000157951      1.55602      52.8355 
0.000251854      1.48976      64.9831 
-3.74153e-05      2.76007      76.1651 
0.000664812      3.19953      68.1653 
-0.000180335      2.75036      76.1153 
7.54979e-05      2.02485      69.7751 
5.65072e-05      2.01201      69.9439 
4.49303e-05      3.19766      63.8356 
-0.000460378      2.63211      73.2174 
5.70478e-06      3.20208      63.6750 
0.000377525      1.61149      56.9016 
-0.000105075      1.55000      53.1301 
0.000247581      1.61137      65.8209 
9.88125e-05      1.50376      65.6506 
0.000251429      3.21548      63.5943 
0.000259808      2.83678      70.8625 
-0.000217966      3.34396      69.8851 
-0.000623580      3.32627      66.0550 
0.000218173      2.83351      71.0535 
-2.33992e-05      2.87044      66.3820 
0.000409944      3.20652      63.5149 
0.000635006      1.77868      58.0970 
-0.000294483      3.30298      65.6852 
-7.39895e-05      2.92959      62.5603 
-0.000260590      3.29387      65.6136 
1.72822e-05      1.48556      65.3326 
-0.000201916      1.60655      61.3611 
0.000490655      2.85883      61.8214 
-0.000395580      1.97408      73.2174 
-5.53572e-06      3.34054      70.0462 
-6.38688e-05      1.41421      61.2602 
0.000445580      2.97866      64.1232 
0.000172667      3.39882      63.4349 
0.000678044      2.67858      74.4072 
-0.000248500      3.23289      70.1077 
-0.000322780      2.74066      76.0652 
-6.36679e-05      1.42780      61.1013 
9.68706e-05      2.84007      70.6719 
0.000170869      2.02141      70.0411 
0.000132074      2.68961      69.5437 
-0.000133791      1.43265      60.7512 
5.74738e-05      1.48071      64.8195 
-0.000220261      2.62924      73.4260 
-0.000189782      2.84810      66.4052 
-0.000197727      1.61533      61.5311 
0.000201903      3.19025      68.0985 
9.13654e-05      2.84478      62.3540 
5.35914e-05      2.84340      70.4817 
-0.000172483      2.60499      75.3236 
5.31956e-05      1.48499      64.4703 
-8.50280e-05      2.73095      76.0146 
-1.58842e-05      3.30801      65.9144 
-7.94722e-06      1.55801      53.3507 
3.97354e-06      3.19399      67.9321 
0.00298353      8.72711      65.6375 
0.00145155      8.38716      62.2128 
0.000715062      8.39601      62.2446 
0.000236874      8.39183      62.1524 
0.00125141      6.78755      105.203 
-0.000113431      7.55535      95.5446 
-0.000689720      7.54540      95.5519 
0.000312021      3.40129     -6.41461 
0.000137145      3.39249     -6.60130 
-0.000513706      4.84514     -12.5160 
-0.000987656      2.13354     -6.45882 
0.000981022      2.66002    -0.215400 
0.000488086      3.41123     -6.39584 
-0.00131544      3.02914     -173.555 
-0.000123984      8.09006      36.6574 
-0.000262851      7.36912      69.0071 
0.000151272      5.23041      71.4958 
-0.000206539      6.40691      20.2734 
-0.000176202      3.92449      60.0378 
8.95181e-05      7.64714      109.241 
0.000452608      6.48439      30.7971 
-0.000394907      8.09603      36.7142 
5.92569e-05      3.00832      37.7079 
0.000610576      10.4206      55.7152 
-0.000370023      8.65342      77.2486 
-0.000189586      5.69727      101.645 
0.000420525      1.53003      89.6255 
0.000825926      5.21776      71.5651 
0.000274773      7.64385      109.170 
0.000113759      3.00042      37.8247 
-5.68127e-05      8.91813      70.9555 
8.47044e-05      6.77649      114.220 
-0.000260895      7.54637      95.6275 
-0.000356181      6.43273      78.3407 
0.000288215      4.94802      59.6519 
-0.000175232      4.85275     -12.3751 
-0.000449598      8.92140      70.8948 
-0.000695040      6.40101      20.3884 
0.000508785      6.77239      114.143 
0.000328961      3.54239      177.897 
-0.000180529      4.58000      15.1893 
8.14859e-05      1.16606      143.720 
0.000107176      2.99252      37.9422 
-0.000211808      6.36795      7.03573 
-0.000213692      3.91583      59.9647 
-0.000249164      1.21103     -2.36625 
-0.000316042      1.30246      86.4785 
0.000197685      6.82754      120.546 
-0.000127423      7.36555      69.0798 
0.000177495      1.17414      144.009 
-0.000175484      4.78516      55.2140 
0.000215052      2.98464      38.0602 
0.000148592      7.64058      109.099 
-4.97631e-05      2.22569      23.5704 
0.000356901      6.24375      42.2737 
9.53514e-05      3.44606     -12.0599 
-0.000276184     0.418688      139.844 
-0.000352443      2.14105      107.673 
-0.000958337      6.36673      6.94642 
0.000119433      3.73708      93.5285 
-0.000515260      6.48188      40.6205 
-0.000165787      8.65833      46.5911 
2.48646e-05      5.45271      19.4983 
-0.000210761      3.43495     -152.614 
0.000401270     0.967678      18.0605 
-7.26639e-05      2.97330      177.301 
0.000181847      2.22144      159.444 
0.000244119      5.44328      19.5335 
0.000160007      3.42117     -6.37719 
-4.60837e-05      3.14479     -156.777 
8.88890e-05      7.21178      85.5465 
0.000116610      4.93939      59.5933 
-4.75073e-05      9.35446      49.9435 
-0.000154199      3.22006     -157.736 
-0.000148357      6.44455      78.2716 
0.000617723      1.27566      174.602 
0.000769517      5.83874      49.6542 
9.14911e-05      1.18224      144.293 
-0.000364359      3.51194      147.441 
-0.000305878      4.77947      55.3124 
-0.000334350      3.05125      42.2105 
-0.000175935      3.77878      14.4040 
-0.000134048      7.37133      69.1801 
0.000236092      1.68443     -54.4228 
-0.000133941      6.49446      119.723 
-9.19709e-05      2.38556      30.7578 
9.08943e-05      7.63731      109.028 
-0.000352653      2.96331      177.292 
-0.000208382     0.999600     -70.1148 
-6.60203e-05      6.21225      86.4007 
0.000229872      3.53239      177.891 
-0.000110554      6.10844      69.1915 
8.05151e-05      3.60028      159.854 
0.000447666      4.55563      128.404 
-4.47793e-05      9.36090      49.8966 
-6.54423e-05      7.54736      95.7030 
2.25881e-05      4.95308      59.5520 
-8.81513e-05      2.28709      4.51398 
-2.25492e-05      7.98276      54.6375 
-4.43625e-05      5.70506      101.527 
-0.000170533      1.85607     -41.5054 
-0.000141036      6.43476      78.2535 
0.000268674      1.27664      174.155 
-0.000303030      2.37697      30.8811 
-4.43557e-05      6.08106      18.4052 
2.22632e-05      2.64008    -0.434057 
-0.000315604      2.14238     -6.16299 
0.000106807      6.81893      120.589 
-0.000447684      8.10405      36.6719 
-0.000374137      1.22147     -2.81556 
-0.000125392      1.72586      43.5914 
0.000105469      7.94512      97.8853 
-0.000104182      6.09493      41.1417 
-0.000260895      7.98855      54.5790 
-0.000143338      8.26915      63.8068 
0.000146125      2.77478      7.66286 
-8.27519e-05      4.34457      110.479 
-0.000543721      6.07474      18.5244 
0.000301808      6.49377      21.7850 
0.000121529      6.47068      30.7663 
0.000119280      4.22366      102.720 
0.000252204      7.47200      36.8392 
2.16950e-05      7.54080      90.8358 
4.29307e-05      7.64676      109.004 
0.000120322      4.94446      59.4933 
4.26254e-05     0.843860      139.325 
0.000101849      1.19038      144.574 
0.000105213      8.20747      92.4441 
0.000102482      2.97678      38.1788 
-0.000267075      8.66559      46.6366 
2.14281e-05      4.14174     -1.66028 
-0.000101431      3.43956     -152.466 
-0.000100896      1.14018     -164.745 
-0.000158681      6.58485      70.5744 
-4.18099e-05      9.36855      49.9360 
-2.12012e-05      2.97834      46.7687 
-0.000149421      2.27713      4.53379 
0.000161263      4.14204     -1.79855 
-0.000394465      2.96420      46.7771 
0.000210177      7.64351      108.933 
-0.000274512      6.66355      72.3536 
-0.000208193      8.66317      77.2632 
-0.000137217      7.36778      69.2528 
-0.000223857      6.48578      119.767 
-0.000254272      6.11200      69.1038 
-0.000207199      4.98064     0.920332 
-7.74240e-05      5.70307      101.428 
2.06206e-05      7.55080      90.8347 
0.000305482      2.76355      7.48504 
0.000135091     0.837377      139.844 
9.76357e-05      3.43996     -6.17465 
-2.04221e-05      3.13560     -156.705 
-0.000226633      8.92467      70.8342 
0.000142252      6.76831      114.066 
0.000245087      2.94090      173.165 
0.000521382      8.21704      92.3714 
9.55024e-05      2.21208      159.353 
-0.000321067      2.51032      103.593 
0.000134232      1.85456      175.980 
-0.000189283      3.75341     -2.44314 
-9.62683e-05      7.54836      95.7786 
0.000247066      6.82402      120.661 
3.98957e-05      2.73967     -175.184 
9.19708e-05      4.14223      8.18879 
-7.68467e-05      3.76910      14.4418 
0.000131818      4.22214      97.0745 
-0.000153024      4.78769      55.3805 
-0.000376079      6.48948      40.5630 
-0.000204795      1.83698     -59.9456 
-0.000129339      1.86357     -41.3016 
-1.97652e-05     0.426380      140.711 
0.000230190      2.80257      92.4540 
7.60211e-05      6.14216      36.4594 
-0.000422137      2.26716      4.55376 
-0.000123084      9.37499      49.8892 
-0.000213580      3.23483     -158.034 
-9.22452e-05      4.93518      49.2728 
-1.94942e-05      2.18050      14.6098 
0.000900132      6.90293      97.7427 
7.43907e-05      2.74964     -175.202 
5.66584e-05      7.94376      97.8139 
-0.000300575      6.16215      7.45947 
-0.000125714      1.71863      43.8212 
1.92283e-05      7.55066      90.7588 
0.000486577      5.45133      60.1899 
-0.000110346      2.18305      14.8638 
5.48888e-05      4.93077     -14.2053 
-7.31068e-05     0.425206      138.814 
3.77398e-05      2.96892      38.2981 
7.33880e-05      4.15072      8.03249 
0.000163037      4.15204     -1.79422 
7.30316e-05      1.54003      90.3720 
-5.40994e-05      5.61357      111.858 
-0.000339621      3.44843     -152.543 
0.000222480      4.97733      3.10959 
7.37119e-05      6.86278      84.3974 
-3.67963e-05      7.75881      86.0091 
-0.000104648      2.73190      146.194 
-1.87316e-05      5.34922      51.9089 
1.87036e-05      3.09821      36.2041 
-0.000122271      3.31658      100.598 
8.94105e-05      6.43854      12.7412 
-0.000262337      5.36325      51.8908 
1.85856e-05      6.82504      70.6624 
0.000103357      3.80789      129.459 
-1.84962e-05      6.08836      41.0708 
-0.000217865      6.70552      96.6799 
0.000104135      5.43386      19.5687 
0.000155483      3.44990     -6.15679 
-0.000172779      3.05866      42.0847 
5.34359e-05      2.97513      38.4493 
0.000426835      4.63751      76.5331 
-0.000118127      1.12792     -165.101 
0.000140708      6.60164      7.83552 
-0.000229341      2.71310      138.437 
-6.91127e-05      7.54937      95.8541 
0.000212297      5.05019      104.917 
-0.000153425      7.99435      54.5206 
0.000242635      3.11207     -170.568 
-0.000232356      4.78202      55.4791 
0.000101240      4.55544     -20.0261 
0.000101295     0.829759      139.399 
0.00101466      3.47967      152.625 
6.94746e-05      5.50459      32.1598 
0.000133091      6.13412      36.5150 
5.19823e-05      6.45697      30.7355 
-0.000290649      2.36840      31.0052 
0.000102704      6.86377      84.3143 
-7.02925e-05      3.69628      156.903 
3.43329e-05      3.10628      36.0952 
9.15071e-05      4.21171      102.617 
-0.000328867      3.75300     -2.29061 
0.000251120      2.96731      38.5693 
0.000251016      8.75306      41.8510 
-0.000487709      8.91195      70.8738 
1.74063e-05      6.81561      70.6346 
-0.000132355      2.18563      15.1172 
8.02228e-05      1.86387      176.309 
1.73653e-05      1.19854      144.851 
-0.000647180      1.83199     -60.2163 
5.00124e-05      7.94241      97.7424 
3.35316e-05      1.69027     -54.1471 
-8.01364e-05      1.29248      86.4513 
0.000177439      6.99034      121.189 
-0.000150568      3.70941      156.822 
-6.55056e-05      8.27813      63.8373 
0.000144352      5.20511      71.6347 
0.000132742      2.95203      172.995 
-0.000448194      6.07157      18.4349 
-8.20869e-05      3.83520      149.959 
3.37222e-05      1.54013      90.7441 
-0.000221756      3.75800      143.222 
0.000110895      4.08119      101.448 
7.89963e-05      2.21563      159.111 
1.70841e-05      5.30431      14.2982 
0.000359335     0.977190      17.8787 
-0.000204347      6.86568      100.066 
0.000194813      2.86777      24.9565 
0.000113767      4.16203     -1.78991 
0.000162775      5.29215      14.2201 
0.000105862      6.44829      12.7216 
0.000238026      6.59173      7.84737 
-7.85754e-05      7.36424      69.3256 
-6.38934e-05      2.15058      107.592 
-0.000508249      2.97106      46.6366 
6.49544e-05      3.23867     -162.572 
0.000219881      5.51306      32.1045 
8.06775e-05      7.27077      110.953 
-0.000124203      5.40634      41.3255 
-3.27977e-05      2.25719      4.57392 
-3.26781e-05      1.86454     -40.8679 
0.000161221      6.50542      47.6789 
0.000167264      6.44075      12.8279 
1.63820e-05      4.94047     -14.1769 
7.65401e-05      4.13234      8.20853 
7.92842e-05      6.85583      84.1397 
-0.000164793      3.31475      100.429 
3.18120e-05      7.48001      36.7933 
0.000311937      8.74561      41.8947 
-5.81936e-05      4.97064     0.922184 
-3.19161e-05      6.47213      119.734 
-0.000265707      5.36943      51.8068 
1.61357e-05      4.94094      59.3346 
0.000152539      6.49748      21.8669 
0.000367877      2.84192     -168.018 
3.18379e-05      1.54029      91.1160 
-0.000585365      3.70022      156.761 
4.61119e-05      6.44327      30.7045 
-0.000355109      3.05797      42.3493 
4.69685e-05      5.42444      19.6041 
-0.000727309      5.53014      15.8458 
0.000170173      1.76822     -14.7436 
0.000175619      3.45984     -6.13903 
-0.000162883      8.00830      54.5039 
0.000151550      2.95327      172.803 
-0.000155845      1.64347      138.453 
-7.44938e-05      1.87211     -40.6677 
-3.09862e-05      7.55040      95.9296 
-3.12299e-05      5.23299      5.37286 
1.57287e-05      1.60823      10.7510 
0.000304186      4.96734      3.11585 
3.06951e-05      1.69838     -54.3447 
-0.000105809      10.3396      52.1104 
-5.96646e-05      1.71143      44.0530 
0.000105438      3.24821     -162.625 
-0.000180263      3.91215      114.141 
1.55956e-05      5.28246      14.2467 
-3.08499e-05      8.40536      38.9153 
1.55949e-05      9.09563      113.041 
3.09135e-05      9.97489      58.4452 
-0.000110844      7.23581      38.1528 
9.01496e-05      7.27435      111.026 
0.000135620      5.27031      14.1681 
-0.000172307      2.18826      15.3699 
1.54511e-05      4.93803     -14.0644 
2.98917e-05      7.94106      97.6709 
0.000455533      1.28561      174.644 
-3.03027e-05      6.47710      119.811 
3.02094e-05      1.59841      10.8178 
0.000211410      9.08643      113.066 
-4.52920e-05      5.20408      5.51340 
-4.48406e-05      3.82655      149.884 
-4.51296e-05      2.50545      80.3497 
1.52125e-05     0.822192      138.945 
0.000155616      9.98013      58.3963 
0.000235768      2.45660      94.2019 
7.30524e-05      6.85686      84.0566 
-0.000245486      3.45731     -152.620 
8.70478e-05      6.13622      36.3843 
-0.000156825      8.65867      64.1156 
-0.000499277      8.39908      38.8622 
8.79215e-05      6.35132      4.69622 
8.47282e-05      7.24487      65.4513 
8.78771e-05      5.12064      116.315 
-1.50077e-05      4.77636      55.5780 
-0.000140118      1.67967     -70.1626 
0.000118967      4.17203     -1.78562 
-5.63918e-05      6.12491      69.0498 
8.64249e-05      5.43994      19.4342 
-2.95416e-05      3.52037      147.529 
5.88059e-05      1.28658      174.201 
2.95793e-05      1.55116      92.2168 
5.57457e-05      7.49400      36.8087 
-0.000161472      2.14618      37.6174 
-0.000181609      4.78461      55.6457 
7.14572e-05      4.54262     -19.9508 
-0.000134687      1.42948      42.7320 
4.23233e-05      8.76616      49.4412 
1.47684e-05      7.55054      90.6830 
-0.000276022      5.19412      5.52400 
-2.88054e-05      3.12247     -156.801 
2.91239e-05      8.64811      102.895 
-0.000589520      6.20181      38.2558 
-0.000314471      1.60378     -176.067 
0.000306799      1.63884      95.9541 
0.000269676      6.57330      7.95752 
0.000325722      5.28001      14.1415 
-0.000123131      2.71974      138.279 
-7.00490e-05      2.51700      80.1634 
-0.000147223      6.63353      80.3673 
-0.000334979      10.3379      52.0327 
-0.000548570      1.70294      33.5034 
0.000105759      1.59656      10.4653 
-0.000261244      3.75000      143.130 
2.84346e-05      6.42956      30.6734 
-2.82788e-05      8.45556      103.264 
-5.60910e-05      3.81289      149.938 
2.84829e-05      2.95454      172.610 
-0.000443628      6.35681      6.95732 
1.42885e-05      4.93746      59.1755 
0.000149464      8.64060      102.975 
2.75546e-05      5.20197      71.7392 
5.60209e-05      1.84440     -172.836 
1.42420e-05      6.98178      121.231 
4.16010e-05      3.25776     -162.677 
7.27037e-05      4.94773     -14.0362 
-1.42000e-05      1.82631     -165.735 
-0.000118008      6.86744      100.148 
9.57773e-05      6.50677      21.8341 
2.80804e-05      6.34136      4.70361 
0.00112322      3.38376     -165.101 
0.000122311      5.11622      116.214 
6.58637e-05      1.87385      176.328 
4.14548e-05      7.27795      111.100 
-2.81293e-05      2.35172     -177.807 
-0.000172112      1.21149     -2.83880 
0.000107633      6.45050      12.8082 
-0.000354951      3.13000      85.4188 
-0.000116039      2.15128     -5.86960 
-0.000118342      7.01696      56.3326 
-1.40064e-05      7.36072      69.3984 
-6.73398e-05      9.27136      45.9177 
0.000101066      2.26736      71.4851 
9.44347e-05      2.96446      172.635 
-4.04479e-05      5.39974      41.2458 
6.57319e-05      5.04311      105.056 
5.47383e-05      6.54414      3.76748 
9.54156e-05      1.99409     -45.4063 
4.00131e-05      4.14082      8.05183 
-6.57333e-05      8.66098      77.3277 
4.02111e-05      6.76424      113.988 
-0.000102710      3.64786      97.0861 
0.000104410      2.95949      38.6900 
0.000191279      6.33222      4.80121 
2.73991e-05      4.92887      59.1160 
-0.000169249      8.11804      36.6864 
6.71724e-05      6.84901      83.8815 
-5.23266e-05      2.35983      31.1303 
-3.99300e-05      1.29190      86.8940 
-1.37852e-05      2.36172     -177.816 
0.000222837      4.44420      142.589 
-2.72753e-05      1.83600     -165.812 
0.000166605      5.45550      19.2653 
0.000238854      5.89370      33.5822 
0.000468830      5.30905      7.79433 
-0.000130166      8.01411      54.4457 
-9.11710e-05      5.18417      5.53464 
2.63162e-05      2.80302      92.6582 
-0.000203620      2.36136     -178.059 
-1.36694e-05      3.30492      100.460 
-0.000236865      6.06526      18.5544 
0.000346537      1.83448     -172.797 
-0.000130298      6.36798      119.544 
7.88928e-05      6.80943      39.1592 
-1.35649e-05      5.84363      8.46289 
0.000168650      4.53322     -19.9939 
0.000247395      6.51216      47.6139 
0.000599576      8.21746      92.4411 
-1.35110e-05      4.32234      110.447 
-6.52130e-05      3.80423      149.863 
1.34515e-05      7.93974      97.5994 
0.000111577      4.54943      128.306 
2.66325e-05      4.93401      59.0163 
-2.60236e-05      1.70426      44.2868 
0.000110090      3.46978     -6.12137 
-8.89278e-05      5.83374      8.47734 
3.92530e-05      1.77079     -15.0565 
-7.81947e-05      2.52858      79.9789 
0.000127366      1.94905      141.248 
0.000112181      6.35362      65.2501 
2.64370e-05      2.00112     -45.2025 
1.33046e-05      7.18669      23.7115 
-2.60212e-05      3.76416      14.1470 
-5.16601e-05      6.12849      68.9625 
-1.32792e-05      8.27372      63.8995 
-2.53944e-05      6.17207      7.44742 
8.78454e-05      6.81575      39.2243 
0.000113133      6.08003      90.1885 
-0.000222063      8.66304      64.0561 
2.59851e-05      7.28155      111.173 
1.31596e-05      4.57095      40.0303 
0.000221675      5.43768      60.2290 
-6.36503e-05      1.84570     -165.888 
-0.000143454      6.39513      20.5036 
-5.02034e-05      3.30675      100.630 
3.89784e-05      6.53483      3.86073 
-8.86250e-05      8.88532      43.2671 
0.000159911      9.98537      58.3474 
5.15578e-05      5.31041      7.90122 
1.30990e-05      8.64588      102.831 
-0.000276459      4.77897      55.7446 
-0.000213120      5.37562      51.7230 
7.65842e-05      6.51049      21.9158 
-0.000122530      2.25801      4.82686 
0.000388339      1.99404     -45.0000 
2.59656e-05      4.92544      58.9564 
-0.000115593      2.49826      103.424 
-9.94658e-05      2.19094      15.6221 
2.58109e-05      7.17753      23.7436 
0.000194124      9.07723      113.091 
2.57094e-05      7.44390      112.845 
0.000145366      5.12519      116.165 
7.28588e-05      7.50201      36.7630 
-0.000263986      5.17422      5.54532 
0.000156893      6.85009      83.7984 
0.000886222      3.37669     -164.894 
-9.96218e-05      3.76044     -8.41023 
8.76044e-05      6.45805      12.7020 
0.000390797      2.96575      172.444 
-0.000107137      1.67631     -70.4841 
0.000200028      8.63836      102.910 
-0.000154942     0.932148      99.2602 
-3.75799e-05      9.27114      45.8303 
6.24053e-05      4.93061      58.8569 
-4.85369e-05      2.57562      86.2155 
-0.000151056      8.91523      70.8131 
-1.26869e-05      4.21969      109.809 
4.74631e-05      4.57200      96.7830 
-0.000152417      7.24200      38.2150 
0.000255505      6.52485      3.86664 
7.79124e-05      6.39356      30.6564 
-6.25075e-05      1.61375     -176.091 
0.000264323      5.27758      14.0362 
0.000421896      5.30051      7.91608 
4.92444e-05      7.16838      23.7758 
-9.78303e-05      2.54018      79.7960 
0.000143161      7.43469      112.875 
-0.000251054      7.35256      42.7402 
2.41709e-05      8.77267      49.3916 
0.000166587      6.55488      8.06829 
-4.83975e-05      5.40726      41.1760 
1.24838e-05      7.93842      97.5279 
4.79794e-05      6.82018      55.9371 
-1.24546e-05      3.03896      18.6138 
4.75311e-05      4.13092      8.07126 
2.41503e-05      6.76932      113.877 
-1.24274e-05      3.79559      149.787 
-0.000526075      6.70422      9.61687 
2.45004e-05      7.28517      111.246 
-5.98053e-05      6.14142      68.9089 
9.53048e-05      5.43052      19.4693 
-0.000115908      5.75000      53.1301 
9.44924e-05      6.82913      120.734 
0.000182445      6.51977      21.8830 
-4.79860e-05      7.00864      56.2873 
-2.43740e-05      3.78192      149.842 
-2.36129e-05      3.69103      156.699 
-5.55761e-05      2.72641      138.122 
2.42199e-05      4.57220      39.8537 
-0.000130902      1.61310     -176.446 
2.33044e-05      7.23578      65.4184 
-2.41966e-05      6.60339      67.9408 
0.000156571      2.95169      38.8114 
5.78151e-05      3.11045     -170.750 
7.05136e-05      3.65801     -16.3542 
4.67143e-05      2.46587      93.9532 
-5.90274e-05      9.27793      45.6987 
-3.61205e-05      1.85540     -165.964 
1.21672e-05      6.79812      61.2483 
-4.73061e-05      8.00598      54.4041 
0.000419984      5.08803      53.3103 
-0.000104027      1.20150     -2.86241 
0.000105893      6.46026      12.7885 
-0.000111797      4.04784      27.5146 
-0.000224012      3.46619     -152.696 
-0.000393870      8.87805      43.3113 
-0.000197834      2.83637      130.711 
-0.000100829      7.46138      110.475 
4.69934e-05      1.35030      108.569 
0.000127776      5.39303      130.186 
0.000446869      4.92724      58.6972 
-0.000238632      3.75899     -8.25944 
0.000268248      1.59110      14.5603 
-3.41328e-05      2.35128      31.2563 
-5.87634e-05      3.77327      149.765 
8.12455e-05      6.80294      61.1744 
-0.000202407      3.01921     -173.534 
0.000255380      6.82350      39.1712 
9.90975e-05      4.63985      76.4130 
-7.94733e-05      6.56318      105.646 
4.65899e-05      7.15923      23.8081 
-2.35331e-05      6.63186      80.4525 
6.87651e-05      1.94281      141.478 
-1.18359e-05      1.42215      43.0054 
0.000109668      6.09007      90.2822 
-4.61041e-05      3.94933      29.4210 
0.000473461      9.22560      67.7719 
-4.65328e-05      1.86510     -166.038 
-0.000158244      2.55180      79.6148 
8.01346e-05      8.28502      103.969 
-1.17561e-05      4.94928      49.2606 
-2.30476e-05      3.76173      13.9993 
2.31076e-05      7.28880      111.320 
-1.17206e-05      2.36104     -178.301 
-0.000157063      2.14009      37.4054 
-3.32549e-05      1.69712      44.5225 
-0.000127292      2.18131      15.6928 
0.000299317      6.54498      8.08058 
7.71851e-05      7.93712      97.4563 
-2.29325e-05      3.02949      18.6742 
-0.000312393      3.12003      85.4041 
-4.24343e-05      5.82385      8.49185 
4.58530e-05      6.59194      26.6817 
0.000204866      7.42467      44.7817 
-0.000288854      2.37103     -178.308 
-1.16164e-05      3.90302      114.201 
-3.43507e-05      6.55217      114.335 
0.000146083      3.77115      159.835 
-2.29312e-05      2.22899      5.14788 
0.000107659      4.17173     -1.64834 
9.90721e-05      5.39618      19.7110 
1.15397e-05      4.56580      39.7574 
-5.63602e-05      2.78007      179.588 
-4.48699e-05      7.01419      56.2193 
1.14960e-05      3.27686     -162.782 
-0.000342793      1.62308     -176.468 
-5.46590e-05      6.18198      7.43540 
0.000435593      5.28728      14.0100 
1.14492e-05      5.42109      19.5045 
-2.27710e-05      3.76464      149.689 
-1.14447e-05     0.431856      137.816 
-5.47415e-05      6.86921      100.230 
5.56213e-05      9.99062      58.2986 
3.30558e-05      1.88383      176.348 
-5.60590e-05      1.87481     -166.112 
-8.64328e-05      6.14502      68.8219 
0.000175006      3.47079      152.549 
-0.000374059      2.65189      39.0310 
3.36391e-05      6.32225      4.80880 
-6.39620e-05      8.01180      54.3459 
0.000131301      6.47001      12.7689 
8.54198e-05      7.43858      112.946 
-0.000995909      6.34810      7.05784 
0.000118381      3.90889     -21.7742 
-1.12795e-05      6.59037      67.9887 
0.000226993      6.89303      97.7539 
0.000376224      5.88537      33.6361 
0.000312770      6.85117      83.7152 
1.12492e-05      6.76528      113.799 
0.000574262      6.82053      120.776 
-1.12517e-05      3.74233      149.666 
-0.000592783      2.07087     -38.5302 
2.21252e-05      4.57349      39.6772 
3.31601e-05      6.51890      47.5489 
4.39543e-05      9.07331      113.033 
-4.37794e-05      6.54805      114.256 
-1.11955e-05      1.62049     -24.0343 
4.33737e-05      7.15008      23.8404 
0.000291287      6.79418      61.1338 
8.49329e-05      6.60088      26.6427 
-5.44956e-05      3.73370      149.589 
3.26598e-05      1.35351      108.970 
-0.000312610      6.06209      18.4648 
4.41207e-05      5.39949      130.268 
1.11310e-05      4.54780      128.483 
-0.000162260      3.50704     -161.203 
0.000158957      1.70816     -149.381 
0.000209622      3.84974      146.764 
-6.48304e-05      2.23895      5.12492 
0.000299956      3.22281      109.391 
-0.000134150      5.89438      23.3900 
4.30742e-05      4.97680      2.99463 
-4.27947e-05      8.44354      103.213 
3.28470e-05      8.28744      104.036 
0.000157864      6.51955      47.6731 
-0.000470101      4.04072      151.469 
2.20041e-05      3.28938     -162.667 
-0.000104723      1.61137     -24.1791 
-2.17463e-05      5.41479      41.1063 
3.24214e-05      5.13417      116.116 
0.000208473      6.31314      4.90684 
8.39300e-05      4.54159      128.384 
5.29941e-05      7.29244      111.393 
-4.27229e-05      3.05735      42.6141 
-1.10182e-05      9.27777      45.6114 
5.21565e-05      3.47973     -6.10381 
-1.10018e-05      1.68573     -70.5977 
7.25455e-05      7.51003      36.7173 
-2.18760e-05      3.62891      148.982 
0.000102975      6.40590     -10.4328 
0.000105080      9.06411      113.057 
-4.35453e-05      1.88452     -166.185 
-6.42699e-05      4.77335      55.8438 
0.000166461      1.22066     -34.9920 
-2.17392e-05      6.69604      9.71553 
-2.14667e-05      4.46561      16.1216 
-3.22711e-05      3.02002      18.7349 
-2.14997e-05     0.432782      139.686 
-4.07370e-05      4.95686      49.3360 
-2.12994e-05      3.96188      29.1529 
0.000126345      5.39186      130.336 
-0.000112429      2.78016      179.382 
6.42594e-05      6.29414      104.632 
6.39412e-05      3.29892     -162.718 
4.27603e-05      1.28472      175.088 
-8.45708e-05      3.63749      149.063 
4.02759e-05      2.24341      42.6516 
-3.18446e-05      5.38182      51.6395 
-7.44573e-05      2.55362      79.3941 
0.000430582      3.78054      159.887 
0.000344242      8.27774      104.053 
-7.07307e-05      1.68244     -70.9189 
-0.000152467      6.36306      119.466 
1.07582e-05      1.59477      10.1120 
-0.000541287      3.75757     -8.10854 
-9.07525e-05      6.55085      105.585 
5.04974e-05      1.95064      141.661 
-0.000102694      1.82937      115.585 
0.000304787      2.00112     -44.7975 
-0.000337284      6.70589      9.70111 
-4.25199e-05      1.89423     -166.257 
0.000112691      9.98211      58.2684 
0.000223183      4.52041     -19.9181 
-0.000230210      1.70581      33.0379 
-0.000165954      5.76400      53.1102 
-1.06628e-05      2.71906      116.659 
-3.14042e-05      7.20201      88.6474 
-3.12779e-05      3.29692      100.662 
0.000203452      6.53278      21.9317 
4.91571e-05     0.986712      17.7004 
-0.000147978      8.90578      70.7919 
-0.000202948      1.82705     -60.4885 
0.000158877      5.65303      26.0211 
-0.000151653      6.30714      2.72631 
-5.21367e-05      2.56345      79.4353 
-0.000173367      9.89409      57.1291 
-3.12572e-05      6.38928      20.6190 
-9.02916e-05      6.55308      114.140 
-2.09376e-05      1.21083     -138.013 
1.05549e-05      5.91227      61.1807 
2.08839e-05      1.62788      95.6405 
0.000153688      3.46192      152.473 
-5.96991e-05      7.24986      38.1661 
0.000363297      6.81542      120.704 
-6.22504e-05      1.90394     -166.329 
3.04179e-05      4.95502     -13.8960 
0.000197404      6.47976      12.7494 
-1.04752e-05      2.97794      46.4967 
8.15867e-05      6.29162      104.544 
8.98057e-05      4.24129      148.596 
0.000245859      2.23665      42.4632 
-0.000420945      3.71335      156.680 
-5.05757e-05      8.11002      36.7286 
1.04555e-05      2.85379     -167.863 
7.10596e-05      5.38677      19.7468 
-0.00110613      3.51650     -161.256 
0.000349881      5.89869      61.2190 
7.89419e-05      1.29468      175.126 
0.000282209      4.51101     -19.9614 
-0.000196980      7.35201      42.8503 
-0.000214467      3.47508     -152.771 
-7.05402e-05      2.26797      4.80560 
1.04040e-05      7.94703      97.4469 
-6.95257e-05      8.13291      94.3014 
-8.96138e-05      5.20312      5.40379 
2.02819e-05      4.57482      39.5009 
-0.000107274      4.03897      27.5802 
-1.03106e-05      4.76775      55.9433 
-0.000163284     0.439318      138.691 
0.000118128      7.94574      97.3754 
5.07635e-05      3.30847     -162.770 
0.000212564      2.84401     -167.821 
2.02285e-05      1.35074      109.911 
0.000116748      5.42404      60.2682 
-1.02847e-05      1.19151     -2.88643 
0.000117074      3.92189     -21.8557 
-1.02783e-05      5.74133      100.233 
-0.000276847      5.36777      51.6569 
-3.04488e-05      6.19190      7.42343 
-0.000251856      3.64607      149.144 
-0.000103274      2.73309      137.966 
-0.000243812      1.21754     -137.663 
-1.02591e-05      3.01378      18.9760 
-4.92486e-05      1.69000      44.7603 
-0.000443316      2.56531      79.2157 
1.02227e-05      6.37986      30.6249 
-3.03701e-05      3.73129      57.5877 
-2.01989e-05      2.71013      116.754 
-1.02078e-05      4.45601      16.1573 
3.91941e-05      8.63613      102.845 
-4.00607e-05      7.21200      88.6493 
-6.06046e-05      1.91366     -166.399 
-3.02989e-05      4.77603      56.0105 
7.90893e-05      6.51670      8.20470 
-4.96169e-05      6.37992      20.6506 
0.000107185      1.82455     -172.758 
-1.95272e-05      5.42233      41.0368 
-8.68611e-05      2.97069      46.3639 
-2.99177e-05      6.14864      68.7350 
-6.87963e-05      6.72228      99.5044 
-2.01394e-05      5.73956      100.135 
0.000347027      5.39834      130.417 
-5.84871e-05      3.00433      19.0380 
-1.01015e-05      8.66742      63.9967 
0.000325421      7.78075      111.487 
7.47083e-05      1.63783      95.6062 
-0.000150749      8.39129      38.9051 
0.000105267      9.06020      112.999 
-8.40833e-05      2.64609      166.226 
0.000123891      8.07600      35.0676 
1.99798e-05      7.43172      44.8365 
2.95385e-05      7.29609      111.466 
-9.99915e-06      6.49598      40.6300 
7.80733e-05      4.04975     -6.94953 
0.000200005      6.52629      47.6082 
-9.68970e-05      3.72594      57.7175 
-7.86158e-05      1.92338     -166.469 
-3.53863e-05      2.59856      156.888 
0.000174259      6.78794      70.2837 
-3.94513e-05      7.66418      52.7414 
-1.96449e-05      8.67640      64.0256 
5.75344e-05      6.11772      120.337 
-0.000103187      2.84396      130.579 
0.000279529      6.30317      4.91462 
0.000289298      9.98738      58.2196 
-9.91847e-06      5.74941      100.118 
0.000588185      3.45306      152.396 
1.93388e-05      6.30464      96.0090 
-0.00142220      2.07870     -38.3585 
-2.87619e-05      8.12219      94.2364 
0.000152893      3.84427      146.889 
0.000185315      7.43882      44.7821 
3.87272e-05      6.38496      30.7021 
9.87994e-06      4.57319      96.9075 
8.45609e-05      5.37736      19.7828 
2.92004e-05      6.09013      90.3763 
-2.93322e-05      1.60225     -24.3256 
-3.88055e-05      4.77045      56.1101 
0.000132485      8.21789      92.5108 
1.96230e-05      6.28912      104.456 
-9.86276e-06      6.33818      7.06895 
-1.92651e-05      3.29879      100.833 
-2.87695e-05      5.53705      15.7180 
5.72987e-05      3.31803     -162.821 
-4.80209e-05      5.74766      100.020 
-0.000133783      8.58841      52.5697 
0.000168348      6.52554      3.95425 
-0.000287278      9.88026      57.1463 
0.000184805      1.22886     -34.7246 
4.75526e-05      5.75118      76.8336 
1.85353e-05      4.98731      3.10336 
9.75013e-06      8.77918      49.3421 
2.85466e-05      4.53538      128.285 
-5.74132e-05      5.47365      92.0940 
0.000184679      7.30937      119.687 
1.92837e-05      7.49603      36.7017 
9.73340e-06      6.26955      104.125 
0.000731207      4.92205      58.7967 
-8.58725e-05      1.93311     -166.539 
-4.73678e-05      1.83371      115.866 
1.91864e-05      6.60535      26.5263 
1.92048e-05      4.93401      127.009 
-0.000110776      7.67444      52.5179 
-0.000777095      8.65588      95.9016 
-6.28090e-05      2.27794      4.78453 
0.000238641      6.54206      21.8990 
-1.86132e-05      2.59332      156.598 
0.000218338      6.78543      61.0930 
2.87506e-05      6.26712      104.036 
3.73000e-05      4.17145     -1.51105 
-0.000182210      3.65465      149.224 
0.00151941      1.99409     -44.5937 
0.000355446      2.46343      34.9158 
-0.000111515      6.31713      2.72199 
-7.83239e-05      6.20967      38.1987 
-3.65766e-05      10.3441      51.9890 
-1.89452e-05      6.83001      89.9161 
-3.76057e-05      8.10201      36.7709 
4.65952e-05      8.52775      45.1900 
-6.32143e-05      2.77016      179.379 
0.000266579      4.23608      148.711 
-1.89565e-05      6.15228      68.6482 
-0.000423049      6.40695     -8.88894 
9.53527e-06      4.04856     -6.80905 
9.52003e-06      2.95020      39.0844 
0.000501753      9.22939      67.7144 
5.89324e-05      8.74639      41.8022 
-6.49628e-05      6.72394      99.5884 
-0.000167466      5.21308      5.39344 
2.78558e-05      4.57620      39.3246 
-0.000209913      7.68053      52.4587 
-9.48982e-06      7.21177      88.7287 
-4.63803e-05      1.60639     -24.6506 
0.000128660      4.05848     -6.79231 
3.74155e-05      6.26470      103.948 
0.000116736      3.53782      137.062 
2.80136e-05      3.89960     -21.8287 
9.20114e-05      6.54364      100.211 
-6.48817e-05      2.15000      36.8699 
9.42544e-06      5.13876      115.967 
-9.42012e-06      6.37410      20.7665 
-3.68284e-05      6.62390      76.4673 
0.000333692     0.424264      81.8699 
0.000133218      6.53508      8.09290 
-0.000199777      1.94283     -166.607 
9.94698e-05      4.94200      126.939 
-2.77473e-05      4.76488      56.2099 
2.79137e-05      2.85568      80.9335 
0.000155513      6.39607     -10.4491 
-5.50958e-05      8.93199      44.0474 
-9.33524e-06      2.34273      31.3832 
-0.000204898      1.40656     -60.1541 
0.000199470      5.29698      13.9838 
-7.18325e-05      2.17168      15.7642 
1.85158e-05      6.37126      30.6707 
-5.48064e-05      5.46366      92.0978 
2.73974e-05      6.35844      106.069 
-9.89773e-05      3.72060      57.8477 
-4.56969e-05      1.63306     -176.489 
8.97589e-05      1.81463     -172.718 
0.000151309      3.85265      146.970 
-9.32107e-06      4.03194      151.401 
-0.000730463      1.45134      168.071 
0.000126342      1.22250      156.371 
7.03116e-05      7.50405      36.6561 
-0.000214034      8.60243      52.5573 
-3.66220e-05      5.74593      99.9213 
0.000145290      3.38352     -13.5023 
9.24160e-06      7.94446      97.3039 
-8.09392e-05      2.97039      46.0912 
-3.63436e-05      6.55406      113.945 
1.83543e-05      6.49173      12.8160 
4.45622e-05      4.64724      76.5618 
-9.21715e-06      1.68291      45.0000 
1.81155e-05      1.30465      175.163 
9.20847e-06      9.03009      59.7436 
-8.08244e-05      1.71724      32.3944 
-2.74283e-05      4.84109      122.344 
-5.41290e-05      8.12146      94.1660 
0.000133318      6.50148      12.7965 
9.82615e-05      3.91261     -21.9102 
0.000120676      8.76051      41.8073 
9.17983e-06      6.24079      103.435 
-6.20013e-05      6.67428      109.792 
-2.68390e-05      6.36475      20.7984 
-5.36422e-05      8.08802      36.7565 
4.51126e-05      2.85412      81.1317 
-0.000122899      8.89634      70.7707 
-0.000183649      6.05260      18.4948 
-0.000114065      7.34469      42.9034 
0.000218387      1.56311     -168.187 
-0.000168014      2.08492     -38.5740 
8.00763e-05      7.95438      97.2948 
6.22226e-05      9.02145      59.7116 
-7.84231e-05      5.25602      85.5260 
0.000249381      8.07025      35.0095 
-1.80875e-05      5.56022    -0.515236 
5.31191e-05      1.00881      17.8961 
3.54798e-05      4.52919      128.186 
-0.000174918      6.32949      7.16993 
0.000167074      8.28017      104.120 
1.80466e-05      3.32758     -162.872 
-4.50533e-05      2.15801      36.7106 
-1.79821e-05      5.81249      8.40891 
-0.000105077      3.48398     -152.847 
3.58043e-05      6.26230      103.859 
-3.55459e-05      4.02592      27.8381 
-4.45136e-05      4.75933      56.3099 
-0.000417919      3.70417      156.619 
-8.56971e-05      7.59518      39.9794 
-9.04988e-06      3.64918      60.6251 
-9.04310e-06      2.99488      19.1004 
7.09485e-05      5.09009      53.4678 
-0.000113728      4.83265      122.408 
-1.77690e-05      8.68079      63.9663 
0.000188991      9.05630      112.941 
2.67542e-05      6.36266      30.7167 
2.66966e-05      8.52071      45.2377 
-8.99902e-06      1.83810      116.147 
-6.03224e-05      6.15592      68.5615 
-0.000166701      7.58752      40.0279 
2.64118e-05      5.66202      25.9767 
0.000152074      7.77459      65.7756 
8.38759e-05      5.41536      60.2157 
-0.000120875      8.92504      44.0013 
-5.97230e-05      6.54818      105.501 
-0.000183986      8.87077      43.3556 
-8.93966e-06      5.22312      57.1923 
0.000135901      3.44420      152.319 
0.000906863      3.78993      159.939 
4.36103e-05      7.64027      108.862 
0.000100393      6.11268      120.256 
-2.64382e-05      1.59731     -24.8002 
-0.000112553      6.32712      2.71769 
-8.92707e-06      5.42988      40.9675 
0.000180317      6.86111      83.7244 
0.000319301      6.54187      100.125 
-0.000371227      1.95256     -166.675 
-9.29155e-05      5.74421      99.8231 
-0.000588624      9.87484      57.1950 
-6.10835e-05      2.78568      21.0375 
-8.87685e-06      4.21712      110.111 
-5.22415e-05      5.46330      91.9930 
-2.65101e-05      2.16603      36.5525 
-5.25867e-05      5.22855      57.1002 
-0.000131534      6.71407      99.6026 
7.80894e-05      3.79338      159.798 
-7.72258e-05      1.64247     -176.859 
-8.85059e-06      1.82913      116.285 
-8.84831e-06      3.97452      28.8866 
-8.85226e-06      2.64413      39.1674 
0.000121734      3.66191     -158.199 
-8.83761e-06      9.23472      54.5200 
0.000111408      6.53551      3.94820 
6.92644e-05      4.05731     -6.65209 
0.000120757      6.29408      5.01311 
-1.75406e-05      8.11006      94.0302 
-5.99939e-05      5.56014    -0.412195 
8.81107e-06      6.56129      51.9948 
0.000187008      6.35567      105.983 
0.000115366      3.23798      79.1412 
-3.44219e-05      6.37668      119.500 
-8.76542e-06      3.65409      60.4885 
-8.76641e-06      2.17624      36.0274 
-0.000275352      2.56720      78.9965 
-1.73385e-05      2.37076     -178.550 
4.30497e-05      8.80096      102.268 
5.85520e-05      6.24312      103.524 
8.75697e-06      3.48967     -6.08635 
-0.000142946      2.65045      39.3350 
-0.000239110      3.75617     -7.95753 
-3.46673e-05      2.18433      35.8731 
-8.73671e-06      6.55001      113.865 
0.000100442      1.62693      95.2901 
8.74162e-06      1.58862      14.2112 
-0.000217024      8.08001      36.7990 
-8.73567e-06      3.11925      85.5872 
0.000125570      8.52781      45.2850 
0.000143522      1.23167      156.557 
9.44075e-05      1.25992      137.573 
2.60186e-05      4.97257      119.916 
-2.60126e-05      2.97733      45.9526 
-2.53113e-05      6.63363      76.4875 
-1.73884e-05      1.72569      32.2165 
1.72810e-05      5.73692      77.0054 
8.71031e-06      2.85260      81.3302 
-8.70482e-06      1.69000      45.2397 
0.000280733      8.31666      95.3815 
2.55096e-05      2.05000      167.320 
-5.14512e-05      5.57710      62.7917 
-2.58633e-05      8.38351      38.9480 
1.73039e-05      6.55514      52.0637 
0.000144386      6.54579      21.9802 
0.000189506      1.23709     -34.4608 
0.000273852      5.08414      53.5583 
-9.38201e-05      8.09870      93.8941 
0.000203406      7.44586      44.8368 
2.53321e-05      6.61429      26.4876 
-4.26961e-05      4.74546      56.3434 
8.67830e-06      6.82982      39.2363 
0.000100944      8.91449      105.018 
4.27580e-05      4.94401      126.777 
-8.45623e-05      3.71529      57.9783 
0.000158789      4.83125     -1.30465 
-1.71908e-05      7.36695      55.6197 
-8.63742e-06      8.94986      50.4403 
-0.000265536      1.73738      31.5859 
5.79078e-05      1.69956     -149.210 
0.000395798      3.90333     -21.9650 
-0.000116366      5.23153      57.2516 
2.56551e-05      6.41377      55.0958 
-3.41266e-05      2.19244      35.7200 
-7.47685e-05      1.67601     -71.5651 
-2.56473e-05      3.98724      28.6219 
8.60436e-06      3.23988      78.9675 
1.70322e-05      1.30384      175.601 
4.26519e-05      6.51345      12.8627 
5.84412e-05      6.36798      60.4560 
-2.52656e-05      2.74053      138.106 
0.000335025      6.28412      5.02108 
8.30768e-05      1.80472     -172.678 
-5.90882e-05      2.97713      45.6804 
-3.37966e-05      4.22057      110.238 
0.000233311      3.67120     -158.257 
9.24669e-05      4.96759      119.816 
-0.000137585      8.52033      100.413 
-0.000229431      1.40161     -60.5086 
6.61085e-05      5.65765      25.8857 
-0.000108798      8.59635      52.6102 
4.19655e-05      4.52302      128.086 
2.55294e-05      6.56339      7.96961 
-0.000746075      6.33942      7.15864 
0.000116055      4.79676      131.366 
0.000157470      8.99609      72.9347 
-0.000191360      1.82214     -60.7621 
-0.000143702      5.03621      92.8454 
5.78730e-05      6.79132      70.2043 
-4.22466e-05      5.46297      91.8882 
1.69920e-05      3.86104      147.051 
-4.14729e-05      3.31157      56.4539 
-0.000243668      6.64446      23.7874 
-2.52992e-05      2.83746      130.426 
1.69542e-05      6.54899      52.1327 
0.000273251      5.40483      130.498 
-0.000224326      5.36211      126.507 
-7.48950e-05      8.38980      39.0011 
8.49888e-06      4.99730      3.09715 
-6.66165e-05      2.80080      20.6997 
-4.12465e-05      8.95623      50.3910 
-1.68269e-05      4.96445      49.4112 
-0.000448724      4.83802      122.508 
-2.51048e-05      6.67767      109.873 
-4.14615e-05      2.36076     -178.544 
-2.52618e-05      7.37260      55.5555 
4.14621e-05      7.95312      97.2233 
0.000556339      8.27048      104.137 
8.46771e-06      3.26588      151.866 
-5.85612e-05      4.76319     -7.72183 
-8.46797e-06      6.62157      76.5514 
7.42569e-05      4.49820     -19.8852 
-8.46002e-06      8.68518      63.9070 
8.09213e-05      3.27942      151.794 
5.84279e-05      6.55349      7.98173 
8.23321e-05      6.40806      55.1691 
0.000262225      2.85591     -167.667 
-1.66840e-05      2.76016      179.377 
9.88496e-05      6.52320      12.8432 
0.000122878      4.06610     -6.49580 
-3.34666e-05      2.20057      35.5679 
-5.82757e-05      5.58144      62.9300 
2.51555e-05      1.25936      136.931 
4.15664e-05      3.84721      147.095 
-7.44190e-05      8.89964      70.7100 
2.49716e-05      9.84587      48.3761 
8.40446e-06      6.35406      30.7627 
-6.51668e-05      4.00005      28.3590 
-1.66321e-05      2.63638      166.175 
-6.45055e-05      8.42713      115.440 
-4.99068e-05      5.55014    -0.412938 
-2.48355e-05      6.37177      119.421 
-1.63875e-05      5.54667      15.6900 
-9.00342e-05      5.35993      51.5906 
6.51626e-05      7.49006      36.6404 
0.000147029      1.26669      137.239 
8.36185e-06      6.53496      52.1481 
8.12944e-05      5.87576      39.4060 
-1.66155e-05      6.50358      40.5726 
0.000256162      3.94849      148.041 
-6.57672e-05      6.33711      2.71341 
-1.66549e-05      3.31803      17.1789 
-0.000145511      6.04312      18.5249 
-0.000114008      5.46265      91.7834 
-3.31292e-05      8.08805      93.8282 
-8.09684e-05      4.34410      32.5926 
4.10281e-05      6.52883      52.2174 
-0.000106030      5.23695      57.1596 
-8.31005e-06      6.86295      100.409 
3.26456e-05      4.95202      126.708 
0.000102262      6.79027      61.0192 
-6.46911e-05      1.63248     -176.840 
-5.71615e-05      3.49288     -152.921 
-7.25675e-05      7.33736      42.9566 
9.64598e-05      6.54549      3.94217 
-5.64964e-05      6.29497     -2.27606 
-3.27805e-05      3.78889      13.1193 
-0.000126167      7.38085      55.5994 
0.000387146      6.53652      22.0130 
4.08272e-05      5.89092      33.7170 
-3.28024e-05      5.25524      85.6347 
6.46813e-05      8.64343      106.674 
-0.000195933      2.20871      35.4171 
-0.000222383      8.93224      43.9567 
-3.25212e-05      2.84508      130.295 
-8.27427e-06      2.98412      45.5431 
4.83864e-05      8.45909      96.1756 
-7.33199e-05      3.71732      156.538 
-0.000103775      3.32758      17.1280 
3.28411e-05      6.58182      7.85926 
-7.92873e-05      4.73160      56.3771 
0.000314605      9.05240      112.883 
5.66055e-05      1.17618     -153.217 
-8.24866e-06      3.65903      60.3522 
-8.24633e-06      2.98402      45.2715 
-8.24346e-06      5.45154      40.9091 
4.82446e-05      1.31381      175.635 
-0.000466300      6.01120      125.726 
-9.67856e-05      7.68662      52.3996 
5.70575e-05      4.96263      119.716 
0.000251990      8.59149      91.0671 
-1.63631e-05      4.22404      110.366 
-3.27256e-05      2.99107      45.1355 
-0.000104947      5.58600      62.8386 
-8.63406e-05      6.51117      40.5154 
0.000286633      8.22788      92.5077 
-4.06336e-05      8.08739      93.7575 
-8.20083e-06      8.57627      52.6758 
0.000243186      4.23090      148.827 
-4.07997e-05      5.55008    -0.309705 
-0.000104033      4.77177     -7.58671 
8.19337e-06      4.64492      76.6818 
-8.19022e-06      4.97097      49.3237 
4.87458e-05      2.45284      35.3747 
6.39139e-05      4.51515      128.164 
0.000175375      5.31896      7.77972 
0.000412307      8.47120      96.3028 
0.000190637      8.22745      92.4381 
-1.62331e-05      6.16523      68.5955 
-8.16758e-06      3.71000      58.1092 
0.000816743      8.06452      34.9513 
-8.07191e-05      8.57021      52.7290 
-0.000243989      3.74626     -7.97870 
0.000522113      8.91709      105.080 
-3.24036e-05      6.19787      12.1077 
-3.98313e-05      6.63130      76.5715 
-9.66590e-05      8.36398      97.6263 
1.62521e-05      6.60028      7.74953 
9.62188e-05      1.24085      156.741 
0.000381797      3.59124     -173.766 
-7.24596e-05      3.63329     -170.175 
-1.62091e-05      3.66399      60.2163 
0.000239272      3.68049     -158.314 
-1.61882e-05      2.82540      20.2950 
4.82705e-05      6.57192      7.87118 
-0.000142748      2.99817      44.7297 
-0.000109582      8.69856      63.8768 
-3.21894e-05      8.38203      39.0441 
-8.10974e-06      5.22304      5.38313 
-4.01344e-05      8.47897      92.6363 
-0.000149861      8.89020      70.6887 
-4.00933e-05      9.44386      65.7418 
0.000364463      6.38443     -10.3771 
-0.000131589      2.98277      72.8408 
0.000188373      3.45731      152.620 
-8.70889e-05      2.81603      20.3655 
8.08485e-06      1.01833      17.7232 
-6.41759e-05      6.41683     -8.87515 
-4.01218e-05      5.54008    -0.310264 
2.40548e-05      6.52271      52.2868 
8.05992e-06      6.59037      7.76125 
0.000103350      4.95768      119.616 
8.05904e-06      3.64347      166.994 
0.000110464      4.84125     -1.30196 
-0.000117188      3.79638      12.9381 
1.60881e-05      6.61876      7.64041 
-0.000101910      2.21687      35.2673 
4.79485e-05      6.53517      12.9092 
-0.000170105      8.57285      41.4060 
-0.000163418      4.04951      151.536 
-0.000117270      2.84429     -153.255 
-3.93541e-05      6.38539      119.456 
-0.000118664      1.01980      168.690 
4.75453e-05      8.75384      41.7586 
6.20077e-05      2.97700      172.278 
2.38909e-05      6.61880      26.3715 
4.75466e-05      7.96304      97.2143 
-0.000533487      3.52598     -161.308 
-8.03614e-06      2.70283     -171.060 
-0.000165709      8.07200      36.8415 
7.12740e-05      2.46100      35.2400 
-1.58897e-05      2.35077     -178.537 
-3.98487e-05      6.34709      2.70913 
0.000469936      8.99316      72.9956 
3.18911e-05      4.79016      131.276 
8.01988e-06      3.83882      147.014 
-3.91832e-05      3.31991      56.5493 
5.51072e-05      3.30764      159.099 
6.32326e-05      6.40235      55.2426 
-7.80359e-05      5.35373      51.6745 
-3.15545e-05      2.64273      39.4725 
0.000131139      1.62604      94.9392 
-7.00717e-05      6.18809      12.1271 
-5.44508e-05      5.26522      85.6430 
-7.88980e-05      2.71271     -171.093 
-2.38286e-05      3.66896      60.0808 
-5.50689e-05      3.50179     -152.996 
-0.000155471      5.46234      91.6785 
-0.000115965      1.67287     -71.8900 
-7.97608e-06      4.21466      110.413 
0.000199489      5.88992      61.1722 
3.95289e-05      3.27428      44.1338 
3.17615e-05      1.27405      137.545 
9.28274e-05      8.59002      114.924 
-0.000141153      8.56416      52.7822 
0.000274537      4.07492     -6.34020 
-7.86098e-05      3.03908     -173.577 
-0.000303616      8.47944      92.7038 
-0.000301723      6.41529     -8.78691 
-4.74143e-05      5.53008    -0.310825 
-3.79762e-05      6.18600      12.0365 
7.95462e-06      1.79611     -172.321 
-1.58702e-05      2.86400      126.910 
3.87633e-05      3.53836      137.291 
-0.000847474      3.70815      156.477 
4.65047e-05      6.62735      7.54323 
-0.000409914      8.37389      97.6173 
7.03457e-05      1.79569     -158.436 
-5.42950e-05      4.09782      35.1638 
3.90638e-05      5.30668      13.9577 
-0.000280573      8.38834      39.0972 
2.35580e-05      8.52078      45.3328 
3.91804e-05      6.54359      7.99389 
0.000132232      6.54492      12.8896 
1.58089e-05      4.94605      126.615 
7.93716e-06      9.83923      48.4197 
2.36908e-05      6.50868      52.3026 
-0.000434330      3.62344     -170.148 
-7.07208e-05      5.59057      62.7474 
3.16075e-05      1.27350      136.909 
1.57720e-05      2.27379      71.0072 
6.24763e-05      5.95091      54.9212 
0.000167899      6.10764      120.175 
-1.58101e-05      6.35803      7.04677 
1.57678e-05      6.60885      7.65193 
0.000519373      10.3191      55.2627 
1.56753e-05      1.04043      17.9125 
-9.99183e-05      7.69273      52.3406 
-3.14369e-05      1.22430     -137.317 
-4.70476e-05      6.35708      2.70487 
-0.000107690      9.44797      65.6865 
0.000122150      1.17171     -153.654 
-2.35452e-05      2.87002      127.070 
-0.000247860      3.64095      149.279 
0.000146511      1.25399      156.501 
7.87552e-06      5.00728      3.09097 
0.000100085      4.79768      131.197 
1.57093e-05      3.41766      62.0853 
1.55652e-05      5.40668      60.1631 
-0.000161584      1.39671     -60.8657 
1.56995e-05      1.30311      176.040 
7.86671e-06      6.36306      60.5343 
9.27645e-05      6.51528      8.11766 
0.000558408      6.27415      5.02907 
1.56886e-05      6.26039      9.74819 
7.85470e-06      5.66665      25.8415 
-7.85245e-06      2.83863      130.142 
-0.000233871      3.00528      44.5956 
0.000116356      1.28082      137.215 
-0.000286601      5.23994      57.3108 
-7.83206e-06      3.70277      58.5851 
0.000123315      3.42235      61.9374 
4.64362e-05      6.50257      52.3723 
-3.89547e-05      5.52008    -0.311388 
0.000123423      4.95275      119.515 
4.56416e-05      2.23607      42.8253 
0.000160244      3.28125      44.2591 
-6.14255e-05      7.33687      43.0669 
7.66819e-05      8.64056      106.610 
0.000139266      3.68978     -158.372 
-3.11093e-05      3.67396      59.9456 
4.64119e-05      1.31309      176.070 
-0.000189818      6.65764      23.8314 
3.81747e-05      2.15648      28.2288 
-7.78652e-06      6.15241      106.137 
-6.16510e-05      2.86810      127.349 
3.07899e-05      3.81660      146.976 
-3.03311e-05      7.72243      44.1606 
1.54582e-05      5.86941      39.3306 
1.55017e-05      6.25054      9.76372 
-0.000165469      6.03364      18.5551 
-9.15217e-05      1.21696     -136.998 
-0.000106701      8.90973      106.564 
7.76923e-06      2.27706      70.7693 
3.07029e-05      7.39715      65.4791 
0.000359475      8.31760      95.4501 
4.59844e-05      1.92044      163.358 
-0.000107299      1.01000      168.579 
3.85867e-05      2.46917      35.1061 
4.57504e-05      4.95408      126.546 
6.84528e-05      4.50898      128.064 
-7.75726e-06      5.50245      40.7255 
-3.86467e-05      6.36707      2.70063 
2.32210e-05      6.53621      4.03565 
-7.75490e-06      5.58628      62.6093 
-0.000106610      2.72259     -171.126 
2.30257e-05      5.01727      3.08481 
-3.84050e-05      4.77310     -7.70570 
5.37390e-05      6.39666      55.3162 
3.08592e-05      1.24535     -34.2005 
-0.000137076      1.96229     -166.743 
-3.84368e-05      3.36086      175.392 
-0.000145333      8.06400      36.8841 
0.000173871      3.95698      148.117 
-1.54755e-05      5.52004    -0.207596 
-3.08969e-05      5.59516      62.6564 
-6.11063e-05      2.80665      20.4366 
-1.54007e-05      2.34077     -178.531 
0.000158478      3.31122      158.938 
-3.84042e-05      3.04021     -173.389 
-7.72291e-06      6.68108      109.954 
-9.91425e-05      3.69500      156.557 
-0.000129299      8.55811      52.8355 
-0.000301185      5.51004    -0.207972 
0.000187412      5.67403      81.3844 
-7.71776e-06      4.21816      110.540 
0.000106373      4.85125     -1.29927 
-0.000516917      9.86102      57.2124 
2.28745e-05      2.28650      70.8519 
-3.81832e-05      3.51070     -153.070 
2.29552e-05      5.90103      1.06810 
-6.82756e-05      7.38651      55.5354 
4.57943e-05      6.23254      9.88549 
-6.77154e-05      6.62898      76.6555 
-3.06020e-05      3.67898      59.8108 
0.000238791      6.54618      4.02949 
0.000135911      5.94517      55.0001 
-6.05172e-05      6.39410      119.411 
-7.68079e-06      4.35253      32.5217 
-9.88288e-05      5.59089      62.5183 
7.67967e-06      5.66230      25.7505 
-3.05295e-05      6.19563      38.1832 
-1.53232e-05      2.21732     -4.65635 
-7.67053e-06      6.36755      2.79051 
-6.84610e-05      8.92530      43.9105 
3.78711e-05      8.62564      103.134 
9.72309e-05      2.64004     -175.002 
0.000142573      1.79939     -158.139 
2.28708e-05      5.17081      115.425 
5.29843e-05      2.41603      36.5853 
1.52672e-05      9.98415      58.1406 
7.66238e-06      1.25100     -34.5793 
-6.05944e-05      3.32465      16.9634 
2.29469e-05      9.06551      112.916 
3.79479e-05      7.63383      108.720 
-3.04385e-05      8.53016      100.401 
9.11429e-05      1.28818      137.517 
-4.57024e-05      6.37754      2.78614 
-0.000157245      8.89352      70.6279 
-7.64975e-06      3.68555      59.3295 
0.000211242      3.69908     -158.429 
0.000157151      5.31761      7.67296 
3.79811e-05      1.30246      176.479 
7.55347e-05      5.48198      100.511 
2.26717e-05      7.30068      119.725 
4.54108e-05      3.44843      152.543 
3.02344e-05      1.29468     -51.2711 
5.20761e-05      7.96179      97.1429 
0.000104518      6.54012      100.038 
-7.62826e-06      8.87764      43.4025 
3.03682e-05      6.92833      39.3185 
-8.95409e-05      2.63372      39.9170 
7.50733e-05      6.79512      60.9454 
-1.50803e-05      5.52414      40.6688 
0.000119461      7.45292      44.8913 
0.000171388      1.25925     -34.3211 
6.04990e-05      6.55691      12.9553 
-2.27334e-05      3.05015     -173.411 
5.30966e-05      8.58168      91.1351 
0.000223223      6.92654      17.3886 
-3.77856e-05      6.70422      99.6169 
-0.000112558      3.35090      175.378 
-3.78320e-05      2.87418      127.508 
-6.75796e-05      2.22729     -4.63547 
-8.22760e-05      8.70297      63.8177 
1.51532e-05      2.47736      34.9731 
-8.24189e-05      2.83087     -153.344 
-0.000304815      3.21400     -166.872 
-0.000327222      5.46206      91.5737 
1.51422e-05      6.49647      52.4422 
-2.27262e-05      2.99813      45.0000 
7.58490e-06      6.50538      8.13010 
-2.25668e-05      2.33077     -178.525 
0.000334603      4.94783      119.415 
6.76442e-05      6.39097      55.3899 
0.000312220      6.54027      22.0942 
0.000393140      9.06162      112.858 
-8.24438e-05      6.42216     -8.59694 
-1.50648e-05      4.22168      110.667 
0.000134756      10.5626      52.5009 
7.51129e-05      3.42707      61.7898 
-2.26240e-05      5.25974      74.5634 
-3.75648e-05      3.68402      59.6764 
0.000343386      8.54008      39.9172 
0.000238577      6.53368      8.00608 
4.52453e-05      5.74112      65.3991 
4.49087e-05      1.55129     -168.473 
0.000452800      4.22573      148.943 
-4.52202e-05      6.38753      2.78178 
-5.22472e-05      8.05015      53.4860 
-7.55049e-06      4.78301     -7.68964 
-2.26196e-05      4.05830      151.604 
8.18874e-05      2.84614     -167.624 
0.000171136      1.25004      156.922 
7.55508e-06      1.91377      162.985 
0.000193356      8.58149      91.0683 
6.00657e-05      9.04852      112.824 
-5.24637e-05      1.66979     -72.2161 
5.98239e-05      6.22268      9.90130 
-8.99389e-05      1.00020      168.465 
-3.72959e-05      3.78663      12.9719 
-0.000282013      8.93251      43.8660 
-0.000341581      8.05000      36.8699 
-0.000193135      8.55208      52.8889 
1.50602e-05      1.26317      156.682 
9.68389e-05      6.94240      39.3301 
-3.00163e-05      6.02917      62.5424 
-2.25299e-05      8.52837      100.335 
0.000104750      1.29495      137.191 
-0.000119546      1.39187     -61.2253 
-0.000104201      5.36004      126.656 
0.000103929      1.92333      163.072 
7.52382e-06      5.15186      72.3740 
6.69034e-05      8.59909      114.896 
3.74745e-05      8.65906      72.3183 
-7.52399e-06      8.49520      74.8514 
-0.000207575      1.46113      168.152 
-2.24258e-05      3.51962     -153.144 
-5.24191e-05      4.06307      151.480 
-8.22885e-05      5.59551      62.4275 
1.49909e-05      5.01782      3.19883 
-0.000163814      6.42366     -8.68513 
5.95204e-05      6.36805      106.044 
-0.000104060      2.87237      127.788 
0.000244499      5.40596      130.348 
8.19698e-05      8.63098      106.629 
0.000148398      7.63063      108.649 
-7.51662e-06      2.02633      41.3987 
1.49499e-05      6.60089      26.4486 
-9.66541e-05      7.60161      40.0372 
-7.50616e-06      6.14964      106.048 
2.23906e-05      2.98690      172.304 
-1.49679e-05      7.32957      43.1203 
6.69356e-05      4.79110      131.107 
-7.49758e-06      6.58246      1.56697 
-5.23171e-05      6.39752      2.77743 
-4.48602e-05      2.01884      41.5864 
7.49885e-06      6.28886      31.0106 
0.000178042      6.56665      12.9358 
0.000229547      5.73697      65.4899 
1.49487e-05      2.48556      34.8409 
-9.65405e-05      9.45210      65.6313 
7.49703e-06      1.29248      176.451 
-2.98628e-05      5.26241      74.4584 
7.49493e-06      5.91102      1.06629 
0.000207138      3.64786      172.914 
-3.72206e-05      6.70589      99.7011 
-7.48209e-06      2.55619      41.9872 
1.49674e-05      2.42407      36.4444 
-2.96186e-05     0.317648     -151.821 
5.20657e-05      4.96212      126.477 
0.000133705      9.23319      67.6570 
-1.49294e-05      1.74591      31.4140 
-7.48276e-06      4.84340      122.607 
-1.48771e-05      6.15650      105.933 
7.47846e-06      8.28918      87.3033 
-7.47897e-06      2.81256      20.1746 
-8.16641e-05      3.33422      16.9132 
-2.98660e-05      6.59246      1.56459 
-7.48089e-06      6.16159      68.6821 
-0.000362647      4.83498      122.671 
-7.41389e-05      8.91258      106.625 
1.49295e-05      3.53102      137.181 
-0.000133783      4.13807      146.233 
-4.47546e-05      1.97434     -166.527 
-6.67963e-05      1.71213     -46.8934 
0.000281099      8.27919      87.3000 
5.20034e-05      4.62615      112.629 
6.65947e-05      3.79438      146.938 
0.000103819      5.49549      100.697 
-2.23665e-05      2.73247     -171.158 
5.93030e-05      4.50282      127.964 
2.23577e-05      2.40601      37.0604 
5.20848e-05      2.23877     -147.588 
7.46380e-06      5.67131      25.7066 
7.39765e-05      5.13055      102.953 
7.46689e-06      8.48336      96.4297 
-2.22932e-05      8.31067      102.297 
8.89228e-05      6.10262      120.094 
-9.63420e-05      6.70162      29.8933 
0.000502969      3.39342     -165.145 
1.49182e-05      1.29190      176.894 
0.000163095      8.48225      96.3626 
0.000362592      3.70838     -158.485 
-0.000133309      2.31614     -138.325 
7.45762e-06      2.28980      70.6155 
-7.45557e-06      1.81342     -60.6078 
6.67815e-05      6.38788      55.5885 
-1.48925e-05      6.59589      120.725 
3.71181e-05      3.28824      44.3839 
-2.97653e-05      6.60245      1.56222 
0.000147931      7.24851      53.8099 
-8.12963e-05      6.40772      119.445 
0.000221794      3.96021      148.317 
7.44375e-06      6.28029      31.0576 
5.91186e-05      1.63600      94.9091 
5.92971e-05      9.92652      60.1549 
0.000184854      5.94764      55.1343 
-0.000103716     0.990404      168.350 
0.000184549      6.55211      7.89513 
-2.23073e-05      2.01137      41.7755 
6.66389e-05      2.22928      42.6368 
-5.17421e-05      2.56912      78.7775 
7.44061e-06      5.53050      101.472 
7.43924e-06      5.07821      53.6491 
-0.000111003      4.07185      151.547 
-4.45737e-05      6.40750      2.77310 
6.66826e-05      3.43181      61.6427 
1.48653e-05      5.13931      72.4465 
1.48559e-05      8.65603      72.3814 
-2.22289e-05      6.03379      62.4582 
2.96762e-05      5.02780      3.19247 
-0.000111157      5.60014      62.3368 
-7.40257e-05      6.02416      18.5853 
-1.48557e-05      8.07612      93.6206 
-2.96248e-05      6.51878      40.4583 
-3.70715e-05      2.73095     -171.365 
1.48448e-05      2.49377      34.7097 
7.43496e-06      5.92122      1.16124 
1.48622e-05      1.30231      137.490 
2.95938e-05      4.86124     -1.29660 
-7.42822e-06      2.80318      20.2450 
0.000280610      10.5767      52.4909 
2.22544e-05      2.39804      37.2044 
-0.000103507      1.98406     -166.594 
7.42228e-06      3.52423      137.300 
-8.88511e-05      6.61245      1.55986 
-0.000118194      3.34093      175.365 
-8.12260e-05      2.23725     -4.61477 
-2.96584e-05      2.01062      42.1778 
2.96113e-05      1.28191      176.870 
-0.000258385      6.43056     -8.49552 
0.000169995      1.30908      137.167 
2.21855e-05      5.08035      53.8068 
-5.17868e-05      5.25547      74.3242 
-1.48073e-05      3.28694      101.583 
1.48153e-05      3.89406     -22.0200 
2.22057e-05      1.16730     -154.093 
-0.000324852      8.38689      39.1933 
-0.000140382      1.38708     -61.5873 
-0.000258368      3.61359     -170.121 
-2.96162e-05      6.60101      120.800 
5.16773e-05      7.21180      60.8759 
0.000125504      5.88511      61.2575 
-5.16717e-05      8.32258      102.350 
7.41728e-06      8.26078      104.154 
-0.000287937      3.53545     -161.360 
-0.000199315      5.50004    -0.208351 
0.000221346      6.81032      120.632 
-2.95392e-05      3.68908      59.5423 
5.16744e-05      3.22816      79.1078 
0.000177098      8.25834      104.087 
-1.47928e-05      1.21655     -136.332 
-7.40802e-06      5.02673      92.9649 
1.48000e-05      6.86222      83.6414 
5.90293e-05      1.56109     -168.546 
-7.40658e-06      6.79621      13.4433 
7.38094e-05      2.23034     -147.450 
0.000132761      2.34214      177.553 
-0.000236060      7.84500      34.8245 
-7.40387e-06      2.32078     -178.519 
-3.68872e-05      1.80854     -60.8839 
-5.91305e-05      6.41749      2.76878 
1.47854e-05      5.52852      101.371 
-3.68962e-05      6.62668      76.7397 
-9.59591e-05      2.00322      42.3699 
2.21729e-05      2.39008      37.3493 
-8.11148e-05      9.86644      57.1636 
2.21638e-05      8.64348      72.4245 
0.000118014      9.32134      65.4696 
-2.95042e-05      6.69295      29.9360 
0.000324462      8.54775      39.8742 
-7.37710e-05      6.70255      9.53259 
-3.68958e-05      3.52854     -153.217 
3.68917e-05      5.13630      72.5528 
-5.90195e-05      4.80068      86.1780 
-5.16392e-05      5.64868      97.5276 
7.39170e-06      9.94182      59.2043 
2.95156e-05      6.21283      9.91716 
-1.47522e-05      7.72961      44.1089 
8.10947e-05      8.80568      111.729 
-5.16147e-05      8.07549      93.5498 
5.16144e-05      3.28110      44.5061 
2.94961e-05      4.63001      112.744 
2.95030e-05      4.48197      79.7180 
-5.89794e-05      8.90627      70.5885 
-0.000147495      4.14638      146.310 
6.63497e-05      8.62812      106.566 
-1.47663e-05      2.31078     -178.512 
7.37269e-05      6.38223      55.6625 
2.21228e-05      2.98558      172.494 
9.58529e-05      9.45912      59.8569 
-3.68877e-05      5.36601      126.742 
5.89722e-05      5.30770      7.68738 
1.47552e-05      9.93670      59.2538 
-9.58256e-05      3.00521      44.8652 
0.000110567      9.24244      67.6806 
-3.68650e-05      6.60613      120.875 
5.16031e-05      5.03779      3.18614 
6.63369e-05      4.78453      131.017 
-0.000117933      6.61273      1.64647 
-0.000117934      5.60479      62.2462 
-6.63214e-05      8.89729      106.520 
-3.68737e-05      3.34090      16.6992 
7.38095e-06      6.25461      31.1994 
5.89541e-05      4.08377     -6.18526 
7.38059e-06      2.38214      37.4953 
-4.42329e-05      8.47992      92.7713 
7.37831e-06      2.31158      166.745 
-4.42301e-05      2.74084     -171.397 
-0.000110543     0.980612      168.232 
3.68552e-05      3.43657      61.4960 
-1.47378e-05      8.05611      53.4288 
-2.94652e-05      7.32912      43.2308 
7.37871e-06      6.58299      26.5261 
7.36993e-06      7.96786      81.4835 
-1.47423e-05      2.97619      72.6000 
2.94821e-05      4.97610      126.501 
-5.16000e-05      6.42748      2.76447 
-7.37282e-06      7.44879      29.0770 
-2.21088e-05      3.78440      12.8244 
-7.37136e-06      1.74072      31.1331 
-2.21159e-05      8.42499      88.0274 
-3.68460e-05      7.42491      92.0840 
7.37009e-06      2.10723     -163.457 
1.47401e-05      8.64046      72.4877 
-4.42201e-05      9.45623      65.5761 
-2.21014e-05      2.81745     -153.435 
-4.42024e-05      7.60927      39.9887 
2.21068e-05      4.09191      7.15975 
-2.21018e-05      6.53288      40.4681 
2.21075e-05      9.91784      60.1261 
7.37207e-06      1.28141      177.316 
0.000206335      3.79933      159.991 
-7.37153e-06      7.37521      55.6635 
1.47452e-05      2.37245      37.9809 
7.36683e-05      8.49442      96.4892 
6.63066e-05      1.25925      157.100 
7.37537e-06      5.52655      101.269 
-2.94713e-05      5.25818      74.2192 
-4.41937e-05      7.45366      29.1442 
-2.21033e-05      6.66679      23.7967 
7.36474e-06      9.94019      59.3328 
-1.47302e-05      8.10106      104.585 
-7.36378e-06      1.20934     -136.005 
1.47402e-05      1.90079     -154.109 
-4.42045e-05      6.43205     -8.58362 
1.47313e-05      3.31483      158.776 
7.36907e-06      5.49364      100.594 
-2.21061e-05      4.38098      32.1301 
6.62949e-05      4.13581      49.6091 
5.15711e-05      6.57864      13.0011 
7.36927e-05      6.55616      4.02335 
-7.37255e-06      1.69800     -46.9092 
-7.37372e-06      2.30078     -178.506 
6.63127e-05      3.58130     -173.748 
-2.21003e-05      4.74641      83.9531 
3.68223e-05      6.08896      120.060 
-5.15659e-05      1.99379     -166.661 
2.20987e-05      7.97775      81.4941 
-2.21078e-05      8.70739      63.7586 
-6.63062e-05      8.42534      87.9594 
3.68477e-05      3.48070      40.9227 
3.68294e-05      1.27142      177.295 
-7.36787e-05      3.73755     -14.4081 
-4.42188e-05      4.08065      151.614 
1.47336e-05      2.36457      38.1300 
-1.47345e-05      2.64140      39.7778 
-4.41951e-05      2.33026     -138.305 
2.94644e-05      9.93509      59.3824 
-4.42092e-05      5.36400      126.891 
4.41927e-05      5.50906      100.882 
-4.41924e-05      3.35048      16.6501 
-7.36596e-05      1.38235     -61.9519 
-3.68328e-05      8.34341      67.8925 
-4.41919e-05      6.03046      18.4650 
-1.47300e-05      7.36957      55.7277 
1.47346e-05      4.49668      127.864 
-5.89322e-05      1.99585      42.5633 
2.20965e-05      1.94833     -31.5690 
-2.21088e-05      3.77465      12.8581 
3.68546e-05      1.31590      136.848 
8.10740e-05      3.71769     -158.542 
1.47328e-05      7.25658      53.8565 
-7.36188e-06      2.73007      179.580 
4.41915e-05      3.44135      61.3497 
-3.68339e-05      6.61127      120.949 
2.20994e-05      1.80314     -157.845 
1.47354e-05      6.95647      39.3416 
-2.20990e-05      7.03518      25.8730 
1.47337e-05      6.20298      9.93307 
-7.36374e-06      2.29079     -178.499 
2.94597e-05      1.27315     -34.4390 
-2.94645e-05      8.54605      52.9424 
-4.42091e-05      6.43747      2.76018 
-1.47420e-05      3.33096      175.351 
7.37057e-06      2.11967     -163.275 
-7.36141e-06      6.49807      63.1984 
-2.20907e-05      3.53299     -153.435 
-3.68273e-05      5.50001    -0.104176 
2.21022e-05      7.62744      108.577 
1.47301e-05      6.26419      5.03709 
-2.94640e-05      10.3739      52.0475 
7.36627e-06      1.31643      137.463 
-5.89467e-05      3.21629     -166.698 
-5.89402e-05      3.53866     -161.207 
1.47337e-05      2.35671      38.2801 
7.36593e-06      2.22194      42.8114 
2.20889e-05      7.24261      53.8738 
5.89331e-05      4.22058      149.060 
7.36665e-06      5.21722      123.111 
-1.47316e-05      2.28079     -178.493 
6.63280e-05      3.40054     -165.351 
1.47564e-05      8.63746      72.5510 
-1.47414e-05      2.72007      179.579 
7.36915e-06      6.87215      83.6506 
7.36720e-06      2.31389      166.504 
2.20969e-05      9.07472      112.892 
-7.36364e-06      4.38945      32.0607 
1.47391e-05      6.58838      12.9816 
-2.21138e-05      7.85321      34.7828 
2.94797e-05      1.32322      137.144 
1.47344e-05      4.82895      125.731 
1.47370e-05      6.54954      22.0613 
2.21074e-05      5.94193      55.2134 
7.36725e-06      3.40309     -165.188 
1.47446e-05      8.57149      91.0696 
7.36117e-06      2.99550      172.519 
-7.36714e-06      7.36395      55.7920 
-7.36591e-06      4.39264      31.8809 
7.36766e-06      4.85103     -1.18119 
-7.36596e-06      7.23343      57.9358 
7.37008e-06      6.36529      105.958 
7.36493e-06      9.91287      60.1763 
7.36925e-06      5.12377      72.6260 
1.47387e-05      2.34887      38.4312 
7.37574e-06      7.97628      81.5651 
-7.38011e-06      5.63877      97.5409 
7.37024e-06      9.45410      59.9093 
7.36583e-06      1.63518      94.5599 
-7.37524e-06      5.60946      62.1558 
7.37013e-06      9.07083      112.834 
-7.36653e-06      8.93972      43.8216 
