! Center RA: 12 29 06.69973,  Dec: +02 03 08.59828 (2000.0)
! Established model.
! Flux (Jy) Radius (mas)  Theta (deg)  Major (mas)  Axial ratio   Phi (deg) T \
! Freq (Hz)     SpecIndex
 0.0521616     0.114018     -127.875 
 0.0223361     0.128063     -128.660 
 0.0640843     0.142127     -129.289 
 0.0634592     0.156205     -129.806 
 0.0809863     0.170294     -130.236 
 0.0771614     0.184391     -130.601 
  0.126918     0.192094     -128.660 
 0.0843009     0.206155     -129.094 
 0.0162849     0.234308     -129.806 
 0.0161169     0.150000     -126.870 
 0.0159901     0.248395     -130.101 
 0.0289410     0.136015     -126.027 
   1.13492     0.254951     -131.820 
 0.0301128     0.122066     -124.992 
 0.0542799     0.108167     -123.690 
 0.0263061     0.100000     -126.870 
 0.0935056    0.0943399     -122.005 
 0.0528133    0.0860234     -125.538 
  0.270306    0.0806227     -119.745 
  0.158525    0.0761579     -113.199 
 0.0215118    0.0721111     -123.690 
0.00535610    0.0806227     -97.1251 
 0.0239224    0.0905539     -83.6598 
0.00241520    0.0921955     -77.4712 
  0.362462     0.431393     -134.061 
  0.295566     0.707672     -137.291 
  0.174404     0.424500     -133.091 
  0.114256     0.715053     -137.834 
 0.0124229     0.431393     -135.939 
 0.0216602     0.417732     -132.089 
0.00257002     0.412311     -129.094 
 0.0119667     0.439318     -138.691 
 0.0144684     0.402244     -124.875 
  0.164417     0.394462     -120.466 
0.00881213     0.722496     -138.366 
 0.0118621     0.446878     -139.538 
 0.0315627     0.723464     -139.485 
 0.0279486     0.731095     -139.994 
0.00654057     0.454533     -140.356 
 0.0114467     0.738783     -140.492 
0.00693057     0.462277     -141.147 
 0.0129749     0.740270     -141.582 
0.00569965     0.470106     -141.911 
 0.0159653     0.748131     -142.058 
0.00687256     0.750000     -143.130 
0.00205642     0.756042     -142.524 
 0.0206296     0.478017     -142.651 
0.00199410     0.773369     -139.720 
 0.0453560     0.781025     -140.194 
0.00515966     0.744043     -143.746 
 0.0357524     0.738174     -144.372 
 0.0608263     0.553625     -159.928 
 0.0252064     0.547814     -158.587 
 0.0339157     0.538517     -158.199 
 0.0288352     0.563028     -160.278 
0.00451107     0.411096     -138.945 
 0.0153786     0.578705     -161.878 
 0.0231433     0.403609     -138.013 
0.00433022     0.604401     -163.664 
0.00740721     0.620967     -165.069 
 0.0105354     0.637887     -166.399 
 0.0954343     0.824197     -144.382 
 0.0135142     0.822010     -143.409 
 0.0432110      1.84391     -139.399 
0.00303108      1.56029     -142.028 
 0.0121553     0.374433     -124.114 
 0.0177746      1.56818     -142.253 
 0.0283627      2.62376     -141.033 
 0.0100977     0.372156     -120.700 
 0.0197480     0.367151     -119.358 
0.00144642      2.61748     -141.203 
 0.0146036      2.64433     -142.220 
0.00246338      2.63644     -142.087 
0.00170248      1.69812     -147.995 
0.00118098      1.55081     -141.282 
0.000805629      1.70660     -148.173 
0.00913007      1.71511     -148.349 
0.00159238     0.362354     -117.979 
0.00105587      1.53388     -140.290 
0.00936660     0.594811     -163.393 
 0.0220800      1.85043     -139.164 
0.00366238     0.366743     -115.866 
0.000961630      1.52620     -140.050 
0.00149227      2.61599     -140.896 
 0.0144406     0.362491     -114.444 
0.000302003      1.51743     -139.276 
0.00140236      1.50987     -139.028 
0.000819135      2.58907     -139.543 
0.00101682      2.58043     -139.086 
0.000258441      1.50233     -138.778 
0.000739275      1.49402     -137.984 
0.000710859      2.57288     -138.940 
0.00201740      2.64615     -142.524 
0.000688704      1.48661     -137.726 
0.00668905     0.611310     -164.827 
0.00505502      2.57194     -138.625 
0.00465799      1.72038     -148.065 
0.000218664      1.47868     -136.918 
0.00103267      1.47139     -136.652 
0.000206902      2.65409     -142.655 
0.00293075      2.65601     -142.958 
0.00299245      1.46414     -136.384 
0.00165198      2.65801     -143.259 
0.00990877     0.232594      64.5367 
0.00688294      5.11415     -133.495 
 0.0150607     0.844038     -143.673 
0.00652597      5.10727     -133.413 
 0.0203086     0.233238      59.0362 
0.00437340      2.85806     -139.399 
 0.0256671      3.95324     -135.922 
0.00897944     0.360555     -123.690 
0.00968040      2.85156     -139.551 
0.00971905      5.11454     -133.336 
0.00729987     0.355106     -122.347 
 0.0104499     0.852115     -144.071 
0.00660771     0.349857     -120.964 
0.00655124      2.84508     -139.705 
0.00648676      5.12182     -133.260 
0.00504143     0.344819     -119.539 
0.00943165     0.236008      53.6157 
0.00760732     0.860233     -144.462 
 0.0120656     0.528110     -161.222 
0.000708503      2.83746     -139.574 
0.00322731     0.340000     -118.072 
0.00343112      2.83863     -139.858 
0.00485972      5.12910     -133.183 
0.00387264     0.230217      55.6197 
0.00582846      3.96020     -135.818 
0.00976208     0.335410     -116.565 
0.00133525      2.83099     -139.728 
0.00728583     0.868389     -144.846 
0.00124684      2.83219     -140.013 
0.00312065      5.13640     -133.107 
0.00212348     0.331059     -115.017 
 0.0100185      2.82454     -139.883 
 0.0112395      3.96718     -134.285 
0.00333408     0.247588      46.6366 
0.00437351     0.326956     -113.429 
0.00196493      5.15053     -133.112 
0.00317327      3.95349     -136.127 
0.00864601     0.286007      36.4692 
0.000516428      5.15784     -133.036 
0.000126473     0.876584     -145.222 
0.00170109      5.17880     -133.122 
0.00893296     0.874185     -144.310 
0.000345242     0.240832      48.3665 
0.000906129      5.18564     -133.203 
 0.0113959      5.21311     -133.523 
0.00209853      3.95380     -136.332 
0.000103103     0.224722      57.7244 
 0.0173978     0.272947     -118.443 
0.000786306      5.17197     -133.041 
8.88181e-05     0.219545      59.9314 
 0.0241701     0.882327     -144.689 
0.00182179     0.238537      56.9761 
 0.0135727     0.242074      51.7098 
0.00274961     0.344384     -115.821 
0.00182304     0.340147     -114.305 
0.00209949     0.248395      49.8991 
0.00105598      3.97417     -134.388 
0.00200720     0.269072      41.9872 
0.00142071     0.276586      40.6013 
0.00196102     0.345398     -112.109 
0.00726328      2.83986     -140.143 
0.000485595     0.284253      39.2894 
0.00468436     0.292062      38.0471 
0.000469688      3.96043     -136.023 
0.000256064     0.890506     -145.061 
0.00290280     0.888144     -144.162 
0.000398990     0.354683     -111.501 
0.00765044      5.05684     -144.173 
 0.0131154      5.73008     -136.697 
0.00854313      5.04873     -144.106 
0.000481362      4.94079     -145.055 
 0.0383236      4.93260     -144.989 
 0.0128208      5.73781     -136.907 
 0.0360398      3.52415     -142.610 
 0.0120439      5.49102     -131.382 
 0.0158733      2.13925     -131.589 
0.00214917      5.06270     -144.081 
0.00235668      5.06857     -143.989 
 0.0295779     0.228473     -66.8014 
0.000736543      5.07446     -143.898 
0.00140920      5.08254     -143.964 
 0.0138144      5.08843     -143.873 
0.000606634      5.09433     -143.782 
0.000877712      5.10240     -143.849 
0.00403821      5.74512     -136.975 
0.00490493      2.13178     -131.767 
0.00111381      5.10831     -143.758 
0.00866181      5.48441     -131.304 
0.000269052      5.11423     -143.668 
0.00178597      5.12016     -143.578 
0.00812303      5.12821     -143.644 
0.00547869      5.75296     -137.184 
0.00969357      2.13846     -131.967 
 0.0100769      5.76087     -137.392 
0.00641570      5.47782     -131.225 
0.00190767      2.14590     -131.789 
 0.0115267      5.13626     -143.710 
0.00298601      3.51808     -142.739 
0.00220561      2.10278     -132.109 
0.00187341      5.16469     -145.571 
0.000372259      2.15337     -131.611 
0.000574376      2.16002     -131.810 
0.00171217      2.09609     -131.906 
0.00103674      2.16749     -131.634 
0.00204188      5.14433     -143.776 
0.000622611      5.47691     -131.373 
0.00299636      4.92441     -144.922 
0.00335877     0.237697     -67.7510 
0.000818220      2.08943     -131.702 
0.000763664      2.17497     -131.459 
0.000723801      5.50114     -132.127 
0.00118832      5.15904     -145.663 
0.000603111      5.47123     -131.147 
0.000519819      5.71428     -135.993 
0.000521163      2.08279     -131.496 
0.000477911      2.18161     -131.655 
0.000647889      5.49443     -132.049 
0.000248080      2.07617     -131.290 
0.000126969      2.18248     -131.285 
0.000334971      2.18909     -131.481 
0.000250113      5.15240     -143.842 
0.000245135      2.05000     -130.450 
0.00939246     0.370135     -128.418 
0.00510563      5.16245     -140.265 
0.00346288      4.78257     -136.864 
0.00806424     0.800562     -138.545 
0.00492698      6.61974     -136.102 
0.00525101     0.364006     -127.185 
0.00383470      3.69892     -138.727 
0.00492595      4.77528     -136.782 
0.00321063      2.69007     -142.704 
0.00142368      6.61281     -136.164 
0.00936998      5.17148     -140.492 
 0.0166865     0.190263     -93.0128 
0.00221855      5.17015     -140.336 
 0.0103647     0.368782     -130.601 
0.00234390      2.88640     -142.177 
0.00268245      2.68213     -142.575 
 0.0148368     0.809197     -140.013 
0.000204783      1.15256     -128.660 
0.00482764      1.15745     -129.742 
0.00740494      6.61254     -136.042 
0.00278144      2.88467     -141.899 
0.00278165      4.76800     -136.700 
0.00314136      3.69141     -138.624 
0.000347706      2.67419     -142.444 
0.000838399      4.76760     -136.530 
0.00161668      2.67606     -142.745 
0.00641181      2.87680     -141.776 
0.00110597      4.76072     -136.617 
0.00504684     0.374833     -133.919 
0.000622877      5.18059     -140.718 
0.00968353      1.16516     -129.428 
0.00159188      4.76035     -136.447 
0.000736292      5.18202     -140.874 
0.00208604      2.66811     -142.615 
0.00239615      3.69986     -138.945 
0.000546838      5.18029     -141.427 
0.00655188      6.60535     -135.981 
0.000405196      4.75346     -136.534 
0.000271018      5.16885     -140.180 
0.000648258      5.16759     -140.024 
0.00126727      4.75310     -136.364 
0.000131730      5.17406     -141.513 
0.00570797      5.16784     -141.600 
0.00173390      2.66017     -142.484 
0.000370061      5.16637     -139.868 
0.000722301      2.87517     -141.496 
0.00122033     0.382100     -137.121 
0.000356251      5.15757     -139.640 
0.00114775      4.74587     -136.281 
0.00563052      2.86735     -141.371 
0.000889911      5.16519     -139.712 
0.000776984      3.71602     -139.365 
0.00104224      4.73865     -136.197 
0.00503748     0.816884     -140.464 
0.000999328      5.16405     -139.555 
0.00326449      3.71712     -139.583 
0.00108499      2.65224     -142.352 
0.000294042     0.389487     -138.122 
0.000294043      4.73144     -136.113 
0.00352116      4.72400     -135.858 
0.00151071     0.818352     -141.450 
0.000457533     0.390513     -140.194 
0.000367909      5.16294     -139.399 
0.000768233      5.17054     -139.471 
0.00316431      6.59816     -135.921 
0.00161990     0.398246     -141.116 
0.00203343      2.61905     -141.511 
0.00236127     0.826196     -141.882 
0.000160340      5.16946     -139.315 
0.000819818      5.17705     -139.387 
0.000664259      5.18464     -139.459 
0.000445150      4.71704     -135.945 
6.25318e-05      5.19224     -139.530 
0.00574726     0.771557     -137.626 
0.00619323     0.390513     -129.806 
0.00523907      3.30038     -143.998 
0.00915471      3.29229     -143.896 
0.00140134     0.771038     -136.577 
0.00399594     0.778974     -138.122 
0.00491316     0.386005     -126.573 
0.00486570     0.786448     -138.608 
0.00374217      3.29451     -144.139 
0.00581501     0.380132     -125.362 
0.00770369     0.793977     -139.086 
0.00170968      3.32609     -145.163 
0.00101521      3.28422     -143.793 
0.00565225     0.801561     -139.554 
0.000908560      3.27405     -143.445 
0.00270070      3.32039     -145.305 
0.000417558      3.27200     -143.200 
0.000520502      3.26400     -143.095 
0.000826403      3.26204     -142.849 
0.00276975      3.31471     -145.447 
0.00406584     0.824621     -140.906 
0.000217367      3.25407     -142.743 
0.00124769      3.25220     -142.496 
 0.0197003     0.832406     -141.340 
0.00293038      3.30905     -145.590 
0.00108090      3.24248     -142.141 
0.000754872      3.24076     -141.892 
 0.0104119     0.395980     -135.000 
0.00460167     0.388973     -133.958 
0.00390769     0.382884     -130.764 
0.00451940     0.376431     -129.611 
0.00403494      3.29679     -144.382 
0.00215897      3.29912     -144.624 
0.00213675      3.28866     -144.280 
0.000405017      3.31217     -145.206 
0.000461227      3.27832     -143.934 
0.000259843      3.26810     -143.586 
0.00155925     0.353554     -118.740 
0.000480849      3.26602     -143.341 
0.000635935      3.25601     -142.989 
0.000938270     0.348855     -117.300 
0.000191915      3.24612     -142.636 
0.00660983     0.382100     -132.879 
0.00423894     0.375367     -131.760 
0.00281336     0.808084     -139.014 
0.00357697      3.30847     -144.100 
0.00743090     0.358050     -125.910 
 0.0224522     0.838690     -140.807 
0.00575262     0.352278     -124.592 
0.00185485      3.30262     -144.240 
0.00719033      3.39013     -143.637 
0.00633749     0.362353     -129.401 
0.00153393     0.815659     -139.475 
0.00113933     0.823286     -139.927 
0.00680415     0.356090     -128.157 
0.00136308     0.830963     -140.371 
0.00285089     0.346699     -123.232 
0.000940755      3.31435     -143.960 
0.00142546      3.30627     -143.858 
0.00129375     0.341321     -121.827 
0.00331451      3.30492     -144.482 
0.000251352     0.784920     -135.516 
0.00107173     0.799813     -137.534 
0.00548776     0.350000     -126.870 
0.000337016     0.807218     -138.013 
0.000752362     0.344093     -125.538 
 0.0343495     0.283019     -122.005 
0.00519475     0.751665     -130.684 
0.000286325      3.31074     -144.342 
0.000583741     0.758222     -131.257 
0.000102624     0.764199     -132.879 
0.000882709     0.771038     -133.423 
0.000238785      3.31658     -144.201 
 0.0298313     0.246982     -58.2405 
0.00179828      7.65355     -147.431 
0.00336661      3.43332     -137.715 
0.00883812      7.64513     -147.391 
0.00457468      1.35665     -144.904 
0.000445112      5.94030     -134.182 
0.00314499      3.44073     -137.827 
0.00527108      1.31034     -141.818 
0.00725152      5.93334     -134.112 
 0.0126050      4.97323     -146.981 
0.000864625      5.08035     -143.807 
0.000765362      3.44814     -137.939 
0.00157758      3.53425     -141.087 
0.00138386      3.44006     -137.592 
0.00306202      3.54054     -140.961 
0.00467395      1.40663     -147.779 
0.00149156      3.43945     -137.357 
 0.0100668      5.92638     -134.043 
 0.0121145      4.98162     -147.044 
0.00251860      7.62529     -147.206 
0.00104992      3.54684     -140.836 
0.00159411      3.43890     -137.121 
0.00240238      1.30250     -141.546 
0.00701724      3.57863     -140.215 
0.000512689      3.43840     -136.886 
0.00686069      3.52797     -141.213 
0.00265885      7.63671     -147.350 
0.000977001      3.43111     -136.771 
0.00207709      1.29468     -141.271 
0.00111751      7.61688     -147.165 
0.00287732      4.99001     -147.106 
0.00124352      7.68505     -147.758 
0.00314066      5.91943     -133.973 
0.000822641      1.27781     -140.080 
7.92097e-05      3.43796     -136.650 
0.00109471      3.43070     -136.535 
0.00120458      5.91970     -133.836 
0.00136596      7.60848     -147.125 
0.00157438      5.07229     -143.740 
0.000708889      1.27016     -139.790 
0.00529138      5.06423     -143.673 
0.00402034      1.30419     -142.164 
0.000119935      3.44571     -136.999 
0.00177952      3.45303     -137.112 
0.00275224      1.38975     -147.339 
0.00194133      5.93357     -133.976 
0.000104648     0.191050     -132.879 
0.000405774      3.46036     -137.225 
0.00111431     0.197990     -135.000 
0.00100999      3.46716     -137.104 
0.00169521      7.62829     -147.310 
0.000337374     0.205183     -136.975 
8.34325e-05      3.48129     -137.095 
0.000474987      3.47397     -136.983 
0.00267179      5.92663     -133.906 
0.000840721      3.49543     -137.087 
0.00168403      1.28690     -140.993 
0.00270059      3.50224     -136.967 
0.000529440      7.60009     -147.084 
0.000396769      7.67659     -147.718 
 0.0196435     0.238537     -56.9762 
0.000328178      5.05617     -143.606 
0.00363357      5.04813     -143.539 
0.00233139      1.38134     -147.115 
0.000579724      7.61988     -147.269 
0.00146294      3.50907     -136.848 
0.000155894      7.61147     -147.229 
0.00165962      5.03206     -143.403 
0.00198258      3.51592     -136.729 
0.000980709      5.04009     -143.471 
0.000147712      1.29630     -141.892 
0.000187701      1.27914     -140.711 
0.000125073      5.01601     -143.267 
0.00170646      5.02403     -143.335 
0.000911019      5.91250     -133.904 
0.000761652      1.37295     -146.889 
0.00135395      5.00800     -143.199 
0.000700248      5.90557     -133.834 
 0.0163965     0.715891     -131.035 
0.00427167      5.03700     -133.230 
0.000564343      4.76844     -133.130 
0.00481240      2.77087     -145.736 
0.00505964      4.76161     -133.043 
0.00337448      4.12404     -143.380 
0.00232577      1.40663     -125.159 
0.00391942      2.76827     -145.449 
0.00629727      6.71450     -136.992 
0.00357913      5.03659     -133.391 
0.00617323      6.70719     -136.933 
0.00109327      4.11602     -143.297 
0.00568266      1.41241     -125.491 
0.00105501      3.08449     -145.434 
0.00914222     0.722496     -131.634 
0.00534606      4.12612     -143.574 
0.000482030      3.08196     -145.176 
0.000464158      2.76574     -145.161 
0.00200308      4.75479     -132.955 
0.00235119      3.09018     -145.281 
0.00145402      2.75754     -145.042 
0.00740358      2.88300     -141.620 
0.00134150      5.02555     -132.419 
0.000101012      5.03621     -133.552 
9.89238e-05      5.03587     -133.713 
0.00507531     0.729178     -132.221 
9.67215e-05      5.04251     -133.955 
9.46341e-05      5.03532     -134.034 
 0.0123647      2.72406     -143.509 
0.00152992      5.01881     -132.335 
0.00176540      5.04227     -134.116 
0.00119932      4.74747     -133.037 
0.00598734     0.842021     -142.722 
0.00221291     0.367696     -135.000 
0.00459122      3.09588     -145.129 
0.000807213      4.74065     -132.948 
0.00453425      1.41481     -124.926 
0.00137523      5.04924     -134.198 
0.00101310      5.01209     -132.251 
0.00648474      4.87238     -134.252 
0.00180447      4.10800     -143.214 
0.000387421      4.73385     -132.860 
0.000456231      5.05621     -134.279 
0.000254670     0.360694     -133.877 
0.000308602      5.06320     -134.360 
0.000478591     0.360694     -136.123 
0.000293676      4.72705     -132.771 
0.000173843     0.709366     -130.426 
0.00642297      5.07020     -134.441 
0.00196155      3.10161     -144.978 
0.000799075     0.353554     -135.000 
0.000374851      4.72026     -132.682 
0.000119356     0.702923     -129.806 
0.00263834      4.10000     -143.130 
0.000906289      4.16285     -144.286 
0.000142092     0.696563     -129.174 
0.000333982      4.71349     -132.593 
0.000817358      5.00537     -132.166 
4.90943e-05     0.346555     -136.169 
0.000928706     0.339411     -135.000 
0.00114940      4.08208     -142.765 
0.000417550      4.70673     -132.503 
0.000183582     0.690290     -128.530 
0.000713152      3.10736     -144.827 
0.00479432      4.07413     -142.680 
0.000627325     0.332415     -133.781 
0.000391144      4.69998     -132.413 
0.000324396     0.325576     -132.510 
6.46119e-05      2.78460     -146.424 
9.53394e-05      4.99866     -132.081 
0.000126473      4.69260     -132.495 
3.08207e-05     0.684105     -127.875 
0.00529172     0.354683     -130.426 
0.00375018     0.348282     -129.174 
0.00130476      4.87955     -134.170 
0.00386544      6.72967     -137.228 
0.00126941      2.76261     -145.620 
0.000129672     0.342053     -127.875 
0.000561873      2.76004     -145.331 
0.00940789     0.848116     -142.184 
6.38304e-05     0.340588     -130.236 
0.000249013     0.334216     -128.928 
0.00147395      4.09200     -143.046 
0.000120318      4.77486     -133.388 
0.000224653      4.76800     -133.300 
0.00247053      1.43809     -126.232 
0.000354174      6.73702     -137.286 
0.000208757      4.76114     -133.213 
0.000147814      4.75430     -133.125 
0.000273838      4.73334     -133.031 
0.00620995      6.73760     -137.406 
0.000287466      4.72652     -132.942 
0.000142944      2.77354     -146.023 
0.000290656      4.71971     -132.853 
0.000194943      4.71292     -132.764 
0.000355416     0.735935     -132.797 
4.82478e-05      4.08402     -142.962 
0.000492857      2.76525     -145.908 
3.57373e-05     0.381838     -135.000 
0.000381950      1.45000     -126.870 
0.000277729     0.403113     -136.005 
2.85231e-05      1.45602     -127.185 
0.00139900     0.410122     -135.000 
0.000135307      4.06807     -142.792 
0.00369474     0.389487     -131.878 
0.00507496     0.396232     -132.955 
0.00640508     0.403113     -133.995 
  0.667115    0.0640310      38.6598 
  0.388857    0.0640310      51.3402 
  0.295281    0.0565684      45.0000 
  0.133513    0.0707105      45.0000 
0.00362995    0.0141421      45.0000 
0.00356336      0.00000      0.00000 
0.00700183    0.0848528      45.0000 
 0.0103264    0.0141424     -135.000 
 0.0102384    0.0989949      45.0000 
 0.0130131    0.0282844     -135.000 
 0.0188087     0.113137      45.0000 
 0.0293172    0.0360557     -146.310 
 0.0226284     0.127279      45.0000 
 0.0277233    0.0447215     -153.435 
 0.0316720     0.134536      41.9872 
 0.0237379    0.0538517     -158.198 
 0.0245333     0.142127      39.2894 
 0.0220955    0.0632456     -161.565 
 0.0239654     0.150000      36.8699 
 0.0187832    0.0728013     -164.055 
 0.0224221     0.158114      34.6951 
 0.0184518    0.0824623     -165.964 
 0.0192130     0.166433      32.7352 
 0.0153839    0.0921956     -167.471 
 0.0170840     0.174928      30.9637 
 0.0646881     0.101980     -168.690 
 0.0532911     0.183575      29.3577 
 0.0153342      6.25645     -140.968 
0.00993043      6.25794     -141.097 
 0.0116944      6.26572     -141.155 
0.00123194      6.26422     -141.026 
0.00159910     0.141421     -135.000 
0.00805485     0.432782     -139.686 
0.00414344      3.73181     -149.036 
 0.0148389      8.12410     -137.295 
0.00907201      2.45748     -146.957 
0.00226543      6.18001     -126.777 
 0.0194808      6.51111     -125.814 
0.00771305      5.20384     -140.928 
0.00118399      3.74386     -149.325 
 0.0144101      3.75247     -149.403 
0.00601712     0.440454     -140.528 
0.00215944      6.17403     -126.703 
0.00151922      6.16806     -126.628 
0.000570477      6.16003     -126.684 
5.97568e-05      3.68572     -148.423 
0.000111995      3.67720     -148.341 
0.000256487      6.15406     -126.609 
5.28943e-05      3.66869     -148.259 
0.00374262      8.13145     -137.342 
0.000971035      3.65170     -148.094 
0.00594071      6.07224     -126.360 
4.60641e-05      6.16209     -126.554 
0.00243877      8.12468     -137.394 
0.00172732      5.19609     -140.858 
0.00128988      2.46587     -147.083 
0.00100856     0.450000     -143.130 
0.00282948      3.75757     -149.272 
1.86887e-05      6.17608     -126.573 
0.00734800     0.417253     -135.971 
0.000982602      6.19200     -126.925 
0.00101381      5.25837     -141.408 
0.00181480      2.47132     -146.889 
0.00127591      6.18600     -126.851 
0.00276036      5.25056     -141.340 
0.00271116     0.425206     -138.814 
0.00192319      2.47970     -147.015 
0.00427554      3.61006     -149.172 
5.46153e-05      6.19401     -126.796 
0.000231219      6.20000     -126.870 
0.000370118      5.24276     -141.272 
0.000103072      6.20601     -126.944 
0.000313943      2.34361     -146.310 
0.000270186      2.48809     -147.140 
0.00419406      8.13089     -137.243 
0.00474243      5.32114     -141.946 
0.000918809      6.21202     -127.017 
0.00110568      2.49353     -146.947 
0.000213728      6.21805     -127.091 
0.00103630      6.22408     -127.164 
0.00198429      8.13768     -137.191 
0.000685342      6.50300     -125.865 
0.000638821      2.50192     -147.072 
0.000680251      3.76269     -149.141 
-0.0215940     0.160000      0.00000 
-0.00667521      5.81352     -136.115 
-0.00251339      5.60116     -136.013 
-0.00412659      5.82046     -136.044 
-0.00374813      5.59422     -136.086 
 0.0111720    0.0806227     -150.255 
-0.000633410      5.82740     -135.973 
-0.00245486    0.0806226      150.255 
0.000957454     0.102956      60.9454 
-0.00995688    0.0761578      156.802 
0.00213661    0.0984884      66.0376 
-0.00170086     0.160312      3.57633 
0.00244442    0.0948682      71.5651 
-0.000363264      5.60811     -135.939 
-0.00146885     0.161245      7.12500 
0.00286924    0.0921953      77.4712 
-0.000158571     0.162788      10.6196 
0.00811168      7.97429     -143.619 
0.000171148     0.812158     -142.001 
0.00531905     0.820061     -142.431 
0.00164997      3.66542     -141.535 
0.000335281      3.32024     -143.820 
0.000112570     0.828010     -142.853 
0.000221553     0.838153     -144.224 
0.000109668      3.59562     -139.399 
0.00205855      3.31217     -143.718 
0.000940847     0.846286     -144.620 
0.000731784      3.67325     -141.633 
0.000412188      3.59457     -139.174 
0.00643726      7.96414     -143.475 
0.000672756     0.854459     -145.008 
0.000572410      3.68110     -141.729 
0.000463198      3.58700     -139.070 
0.000539043     0.862670     -145.389 
0.000528542      3.68896     -141.825 
0.000905149      3.30412     -143.616 
0.00570300     0.870919     -145.763 
8.59177e-05      3.57946     -138.965 
0.000166688      3.58603     -138.844 
0.000329485      3.69682     -141.921 
0.00139927     0.742765     -133.363 
0.000236261      3.57851     -138.739 
0.000388207      3.70470     -142.017 
0.000148785      3.55688     -138.647 
0.000364693      3.71259     -142.111 
0.000142969      3.54938     -138.541 
0.000275677      3.72048     -142.206 
6.95625e-05      3.54189     -138.434 
0.000134622      3.53442     -138.326 
0.000263163      3.72839     -142.300 
0.00110865      3.51283     -138.231 
0.00132868      3.29820     -143.756 
0.000251226      3.73631     -142.394 
6.10384e-05      3.76873     -142.005 
0.000238319      3.77489     -141.885 
0.000172863      3.78107     -141.766 
0.000384414      3.78727     -141.647 
0.00131181      3.50618     -138.353 
0.000258132      3.79348     -141.529 
0.000635548      3.28804     -143.409 
0.00673750      3.74424     -142.487 
0.000245300      3.79971     -141.411 
0.000140075      3.80596     -141.293 
0.00233911      3.27800     -143.060 
0.00488193      3.81222     -141.176 
0.00132460      3.49954     -138.475 
0.00265221      7.96207     -143.375 
0.000449141     0.735527     -133.898 
0.00156539      7.95405     -143.332 
0.00283912      3.31307     -144.583 
0.000918398      3.49292     -138.598 
0.00583655      7.97218     -143.518 
0.000653436      3.32122     -144.683 
0.000330033      3.51950     -138.110 
0.00447496      7.97010     -143.418 
0.000371696      3.48632     -138.721 
0.000460938      3.28402     -142.921 
0.000621173      3.47973     -138.845 
0.00129771      3.47315     -138.969 
0.000366908      3.29006     -142.782 
-0.0136120     0.210950      5.44032 
-0.00270174   0.00999997      90.0000 
-8.10725e-05     0.212132      8.13008 
-0.00493102     0.221359      18.4349 
0.00820920    0.0921954      49.3987 
-0.00664948    0.0199999      90.0000 
0.00305713    0.0400001     -90.0000 
-0.00291279      6.74170      60.8876 
0.00553371      4.44083     -169.753 
-0.00276264      3.67294      171.230 
-0.000711214      1.66736      171.724 
0.00489984     0.924554      38.8534 
0.000935346      10.6827     -140.812 
-0.00557387      11.6080      139.297 
-0.000912085      1.67726      171.773 
-0.000674851      1.97307      176.804 
0.000445078      10.6813     -140.737 
-0.00185455      6.74657      60.8134 
0.000222843      10.6905     -140.846 
-0.000440573      8.18433      147.727 
-0.00228294      1.66595      172.064 
-0.00373158      6.34232     -38.9843 
-0.00371627      1.98363      176.532 
-0.000216034      7.23460      42.3110 
-0.00163772      8.19279      147.765 
0.00142536      10.6891     -140.771 
-0.00261873      7.22721      42.3643 
0.000212602      9.94208     -135.326 
-0.00141497      3.66306      171.206 
0.00274503      9.94217     -135.408 
0.00118324      4.40324      32.1019 
-0.000405087      1.26905     -12.2840 
-0.00191413      9.32657     -152.199 
-0.00111410      7.12116      44.2604 
0.00113360      10.2065     -144.410 
-0.00208878      1.25929     -12.3808 
0.000387824      1.86132      155.225 
-0.000386281      9.18708     -162.255 
0.000387925      6.55433     -5.86716 
-0.00201663      9.33542     -152.227 
-0.000571364      5.09130     -110.464 
0.00324834      8.92239     -56.1496 
-0.00145541      1.65605      172.017 
-0.000550090      3.65318      171.182 
-0.000916478      8.20125      147.802 
0.00192552      6.54337     -5.78901 
0.000736956      1.87040      155.353 
-0.00118984      8.84281     -41.3322 
-0.000369037      9.00000     -106.260 
-0.000704602      9.17110     -162.158 
0.000999198      10.6968     -140.805 
0.000719055      9.93505     -135.367 
-0.000547823      1.99361      176.549 
-0.000880779      3.64177      171.314 
-0.00117735      5.08897     -110.714 
-0.000889417      9.20861     -73.0803 
0.00293137      6.55332     -5.78019 
0.00125059      4.40642      31.9227 
0.000690198      11.4621     -63.5244 
-0.00458439      2.27969      174.715 
-0.000694428      9.00280     -106.321 
-0.000278539      2.25887      174.920 
0.00264668      11.6089     -161.206 
0.000519739      1.89275      155.331 
-0.00165010      11.3775      166.220 
-0.000347250      2.62680      47.9317 
-0.000344767      8.20971      147.839 
0.000495212      10.2147     -144.443 
0.000172242      5.81351      60.3040 
-0.000340587      4.89183      102.275 
-0.00299410      1.64615      171.968 
-0.00700697      8.23877      2.64361 
0.00189863      4.39793      31.9916 
-0.000504494      9.21153     -73.0207 
-0.00141225      2.62612      47.6236 
0.000169686      3.91842     -78.5180 
0.00280953      5.80979      60.1695 
-0.000496189      8.20440      147.898 
0.000650581      1.90184      155.456 
0.00160102      3.91644     -78.6614 
0.000166885      4.45246     -169.649 
-0.00157244      6.68429      29.9788 
-0.000476579      8.65520     -175.627 
-0.00139038      3.63189      171.290 
-0.000477762      9.00562     -106.382 
-0.00147194      4.88971      102.160 
-0.00106588      7.20339      104.306 
-0.000163824     0.875957     -108.642 
-0.000484433      9.22694     -72.9201 
0.000484608      13.6500      149.490 
-0.000162479      11.7600      179.854 
-0.00140290      3.03798     -173.764 
0.00136785     0.915478      40.1261 
0.00106257      4.44262     -169.626 
0.000478667      9.92283      133.816 
-0.00139907      13.7581     -129.278 
-0.000896616      6.36416     -38.9410 
-0.000468440      8.21287      147.935 
-0.000470513      3.64330      171.158 
0.00132271      8.35555      171.327 
-0.00165422      9.16158     -162.139 
-0.000884279      11.7601      179.805 
-0.000157203      4.54528     -58.1282 
0.000919930      13.6586      149.511 
-0.000559705      7.77805      12.6247 
-0.000310060      9.22989     -72.8608 
0.000440232      11.4487     -63.5469 
0.000459423      9.94389      133.859 
-0.000723588      7.20587      104.383 
0.000303950      11.0071     -139.421 
0.000589899      1.91094      155.581 
0.000302903      8.34566      171.316 
-0.00206106      4.04772      161.565 
-0.000731855      4.55057     -58.0213 
-0.000305365      7.28619     -36.4610 
-0.00141684      11.3677      166.208 
-0.00183299      7.55969     -131.407 
-0.000592666      13.0354     -137.301 
-0.000151801      7.23527      42.1991 
-0.000579388      10.9491      145.192 
-0.000297702      9.23284     -72.8015 
-0.000392301      7.27220     -36.4444 
-0.000148479      8.22134      147.972 
0.000582724      13.6672      149.532 
-0.00522279      3.02914     -173.555 
0.000839824      9.95082      133.901 
-0.00153425      2.06051     -171.909 
0.000147130      10.2228     -144.475 
0.00150160      8.92796     -56.0963 
-0.000667946      8.64523     -175.622 
0.000697760      8.35706      171.259 
0.000701088      9.94930     -135.448 
-0.000280301      7.22787      42.2524 
0.000288157      10.5572     -135.192 
0.00173689      13.4515     -52.2782 
-0.00281919      7.28025     -36.3977 
0.00120647      7.48124     -44.7834 
-0.000286526      8.22982      148.009 
-0.000282561      9.30473     -152.058 
-0.000533547      11.5652     -67.9594 
-0.000144288      9.00740     -106.644 
-0.000277992      1.99424      176.262 
0.00117080      11.7312     -119.799 
0.00141731      5.81477      60.0840 
-0.000285286      1.63487      172.266 
-0.00147363      2.28965      174.738 
-0.000412527      3.90021     -117.485 
-0.000541529      9.23580     -72.7422 
-0.000535533      13.0281     -137.271 
0.000406781      4.45427     -169.523 
0.000964594      13.6759      149.554 
0.000280631      9.02344     -94.1309 
-0.00329062      1.64478      172.313 
0.000397196      10.7046     -140.839 
-0.000683854      8.32944      18.4785 
-0.000913351      3.62200      171.266 
0.000802300      10.5643     -135.230 
0.000669130      10.0319     -129.418 
0.00128277      9.41650     -133.150 
-0.000668151      7.89109      110.938 
-0.00165124      4.56966     -57.8750 
0.000944988      11.8793     -173.378 
-0.000407478      13.0202     -137.179 
0.000790434     0.923147      39.7261 
-0.000274624      8.23831      148.046 
0.000137629      6.24836     -101.634 
0.000796146      9.02273     -94.0675 
0.000669816      5.28015      179.566 
-0.000518032      7.76830      12.6408 
-0.00113941      11.7501      179.805 
-0.000135947      9.01035     -107.570 
-0.000393586      2.61939      47.7852 
0.000135567      13.3008      149.753 
0.000266659      12.5416     -166.208 
-0.000513306      10.9409      145.162 
-0.000134029      11.6004      139.265 
0.000133910      11.0146     -139.455 
0.00161475      11.5932     -161.127 
-0.000263830      8.24679      148.083 
0.000519507      9.95643     -135.488 
0.000254399      6.24059     -101.742 
0.000892835      13.2957      149.790 
0.000899023      13.6809      149.517 
0.000884315      8.83589      39.5814 
-0.000131487      9.01338     -107.631 
-0.000639015      6.67563      30.0217 
-0.000260078      13.0050     -137.057 
-0.00122501      8.34526      18.3698 
0.000254501      11.4666     -63.4796 
-0.000618361      2.01487      176.016 
-0.000130120      9.28294     -151.917 
0.000878778      11.8892     -173.383 
-0.000374301      12.3310     -68.8457 
0.000255898      5.25009      179.673 
0.000254392      11.1585     -143.674 
-0.00162172      7.55308     -131.350 
0.000487749      12.5319     -166.197 
0.000375489      5.27015      179.565 
-0.000127304      8.25528      148.120 
0.00269961      8.93354     -56.0431 
-0.000823195      5.88766     -28.1755 
0.000126805      7.19747      78.7837 
-0.000486966      9.01299     -107.832 
-0.000422380      9.23877     -72.6830 
-0.00175518      7.28830     -36.3510 
0.000493145      9.02202     -94.0042 
-0.000125823      12.9899     -136.934 
-0.00164820      11.3580      166.196 
-0.000558710      5.08544     -110.609 
0.000245181      4.46410     -169.546 
0.000125366      10.2391     -144.540 
-0.00191203      7.88752      110.871 
0.000247256      12.9921     -53.3241 
0.000491058      9.96356     -135.529 
0.000601431      10.5714     -135.268 
0.00106542      6.39414     -96.7360 
-0.000124756      8.26378      148.156 
0.000479152      9.97884      133.985 
0.000886901      10.0333     -129.338 
0.000245259      13.6895      149.539 
-0.000483144      12.9748     -136.811 
-0.000579906      4.90160      102.250 
0.000243133      13.4345      153.092 
0.00128726     0.914385      41.0091 
0.000468915      14.9670     -137.871 
-0.000122532      6.35638     -38.9977 
0.00208247      11.1504     -143.644 
-0.000351731      2.61268      47.9476 
0.000823569      5.24009      179.672 
0.000361461      13.4435      153.111 
-0.000311757      13.7567     -129.336 
0.000824701      8.16001      89.9298 
-0.000430649      8.82119     -41.3692 
0.000471046      11.5995     -161.190 
-0.000120870      8.27227      148.193 
-0.000694830      4.03823      161.520 
0.00136144      11.9079     -173.442 
-0.000120377      11.6221      139.292 
-0.000350570      10.9384      145.090 
0.000867169      8.95270      161.100 
0.000676315      7.48834     -44.7295 
-0.00203654      9.15514     -162.060 
0.00177266      13.4594     -52.3042 
0.00114383      13.6860      149.481 
-0.000786473      3.62050      171.422 
-0.00251177      4.87682      72.4567 
-0.000464195      6.66334      30.1822 
-0.000119171      8.29454      148.207 
0.000119082      13.2993      149.849 
0.000802113      8.84360      39.5401 
0.000350148      9.97070     -135.569 
-0.000235111      13.0356     -130.987 
0.00189345      13.4033      153.072 
-0.000232242      8.30304      148.243 
-0.000116941      9.25429     -72.5832 
0.000672808      9.42291     -133.280 
-0.000116517      12.9521     -136.595 
0.000219193      7.20728      78.7992 
0.000229744      5.38205      126.614 
0.000340529      9.02133     -93.9408 
0.000115865      13.2907      149.827 
0.000444253      6.23285     -101.851 
-0.000451838      10.1008      170.771 
0.000115641      12.4219      152.218 
-0.00129603      13.0347     -131.049 
-0.00101727      4.57499     -57.7689 
-0.000331761      2.00489      175.996 
0.000556968      8.93054      161.119 
-0.000975533      11.7401      179.805 
0.00236000      8.16000      90.0000 
0.000225799      4.29424     -170.077 
-0.000450544      12.9373     -136.472 
-0.000544259      9.01606     -107.892 
0.000326172      10.5785     -135.306 
-0.000448978      7.73310     -104.989 
-0.00162168      8.33893      18.4567 
-0.000224006      1.65469      172.360 
0.00128412      8.36695      171.269 
0.000441782      5.38802      126.700 
0.000221940      9.97784     -135.609 
0.000649689      5.45809     -99.7039 
-0.000112469      8.31155      148.280 
0.000637514      9.98579      134.026 
-0.000328414      11.5615     -68.0053 
0.000220151      11.0222     -139.489 
0.000212207      4.41491      31.8541 
0.000112033      13.2943      149.886 
-0.000323445      4.62283      173.167 
0.000545935      5.23009      179.671 
0.00241701      13.3943      153.052 
0.000537605      9.42465      34.1453 
0.000219681      11.8022     -80.4898 
-0.000110300      10.9302      145.060 
0.000789078      3.92822     -78.5470 
-0.000110165      8.34233      148.330 
-0.00115337      7.73570     -105.060 
0.000217550      6.39297     -96.6470 
-0.000313962      8.57460      115.489 
-0.000109060      12.9224     -136.348 
0.000214131      12.4354      152.199 
-0.000352348      2.02556      175.753 
-0.000422311      10.1106      170.780 
-0.000108493      4.02875      161.475 
0.000215500      9.02065     -93.8775 
0.000420471      6.56327     -5.77140 
0.000705000      4.84291      35.7577 
-0.000108206      2.24891      174.898 
0.000635988      13.6911      149.445 
-0.000107891      13.0128     -137.149 
-0.000107895      8.35084      148.366 
0.000107871      4.28267     -170.186 
0.00164517      5.89964     -158.523 
-0.000600706      5.22412     -81.7458 
0.000912026      8.85132      39.4989 
0.000610815      9.80311      43.6774 
-0.000414433      5.87412     -28.1356 
0.000212228      11.8006     -80.5377 
0.000106949      4.28439     -170.054 
0.000212066      5.39401      126.785 
0.000106707      5.19342     -137.029 
-0.000212247      12.9001     -136.131 
-0.000314788      2.05412     -127.484 
0.000210015      9.98499     -135.649 
-0.000210428      3.99712      161.474 
0.000105979      6.40176     -96.5477 
-0.000106165      8.35935      148.401 
-0.000814177      11.9684      146.934 
0.000314083      11.9179     -173.447 
-0.000891956      7.54648     -131.293 
0.000405424      11.0310     -139.596 
0.000689069      11.0945     -81.7603 
0.000104844      10.0270     -129.293 
0.000207690      5.22009      179.671 
0.000878596      9.42977     -133.324 
0.000497564      4.27282     -170.163 
0.000104687      5.20074     -137.104 
0.000207565      9.01998     -93.8141 
-0.000104265      12.8855     -136.006 
-0.000104007      8.39015      148.451 
0.000405652      9.72757      161.044 
0.000401953      11.7874     -80.6256 
0.000306812      5.40000      126.870 
0.000494439      6.40063     -96.4588 
-0.000103369      10.1320      170.742 
-0.000103272      4.89949      102.136 
0.000304811      6.22513     -101.960 
-0.000402244      3.98764      161.429 
0.000204280      11.9267     -173.501 
0.000102860      13.2857      149.865 
0.000580123      5.20128     -137.259 
-0.000102651      2.60599      48.1108 
0.000601479      13.6825      149.424 
-0.000759353      9.01913     -107.953 
-0.000203470      12.8780     -135.912 
-0.000572055      11.5577     -68.0513 
-0.00167697      1.64347      172.659 
0.000591850      5.46628     -99.5829 
0.000202777      5.19004      179.779 
0.000297377      4.48559     -169.467 
-0.000198900      10.9220      145.029 
0.000298782      9.41374      34.2640 
0.000383019      12.4266      152.177 
-0.000663543      3.60913      171.556 
0.00203889      13.4673     -52.3302 
-0.000590547      2.05000     -126.870 
-0.000587623      11.7301      179.805 
-0.000200776      8.39867      148.486 
0.000295647      9.99214     -135.689 
-0.000198603      5.08193     -110.503 
0.000197737      6.57322     -5.76263 
0.000960747      11.9366     -173.506 
-0.000664909      7.63806     -172.931 
0.000198806      9.01932     -93.7507 
-0.000197364      1.99492      175.976 
0.000197761      5.40601      126.955 
-0.000293339      10.1205      170.789 
-0.000196692      5.36606      101.938 
-0.000197396      12.8709     -135.881 
-0.000293196      2.29961      174.760 
-0.000924939      13.0337     -131.111 
-0.000485635      7.74276     -104.970 
-0.000195569      4.61455     -70.5049 
0.000843432      5.18004      179.779 
0.000563514      9.70541      161.061 
9.78024e-05      6.01722     -110.935 
0.000193247      12.9923     -138.963 
-0.000556990      5.88294     -28.0897 
-0.000193607      8.40720      148.522 
0.000193405      6.22306     -101.870 
0.000714468      11.5838     -161.111 
0.00172344      13.3542      153.013 
-9.71127e-05      2.59856      47.9636 
0.000191259      5.67958     -108.052 
0.000191557      13.6876      149.388 
-0.000188200      4.62404      173.044 
-0.000345242      11.0296     -168.547 
-0.000377145      12.8635     -135.787 
-0.000548133      10.1418      170.751 
0.00415234      13.6790      149.367 
-0.000549406      3.94654      161.381 
9.57278e-05      5.40404      127.103 
0.000373101      11.0386     -139.630 
-0.000339387      10.0394      140.173 
-0.000452007      5.38001      102.125 
0.000188588      6.58317     -5.75389 
-0.000401700      2.01559      175.732 
0.000281749      5.41008      127.188 
0.000361179      3.92625     -78.6901 
0.000712035      9.81069      43.5545 
-9.48528e-05      2.05061     -171.870 
9.48505e-05      11.1424     -143.613 
9.47459e-05      10.0069      134.069 
-0.000726940      2.30957      174.783 
0.000271532      8.94324      161.079 
9.44682e-05      9.01867     -93.6873 
0.000187094      9.40547      34.2983 
0.000452232      11.7858     -80.6735 
-0.000722030      10.6093     -40.1444 
-0.00124192      7.74535     -105.041 
-0.000804871      7.53988     -131.236 
-9.42338e-05      8.80707     -41.3634 
0.000273912      6.01146     -111.058 
-9.40644e-05      5.07608     -110.649 
-0.000538470      4.61790     -70.3879 
9.39022e-05      9.99930     -135.729 
0.00108696      15.7425     -128.967 
-0.000545425      2.04402     -126.646 
0.000273130      4.49542     -169.490 
0.000707681      8.85904      39.4578 
0.000365163      5.47449     -99.4623 
-9.34901e-05      8.44654      148.606 
9.34115e-05      12.9848     -138.934 
-0.000363485      8.61792     -107.699 
-0.000185443      7.25017     -36.4748 
-9.30759e-05      3.28014    -0.524034 
-0.000445717      12.5789      166.671 
-0.000184605      11.7201      179.804 
0.000184875      9.18231      127.344 
-0.00103386      5.26579     -19.2952 
0.000262346      6.21534     -101.979 
0.000181813      4.40964      31.7437 
-0.000429969      2.00562      175.711 
-0.000266336      8.56557      115.518 
-9.23267e-05      2.59187      48.1278 
-0.000272111      8.45508      148.641 
-9.22337e-05      8.76859     -65.8318 
0.000449635      13.0933     -58.3008 
0.000270141      5.67649     -107.956 
0.00121724      8.15002      89.8594 
0.000181480      6.39951     -96.3699 
0.000180612      12.9763     -138.843 
0.000268111      6.59312     -5.74518 
0.000181936      5.41613      127.272 
0.000263738      1.62459      65.6436 
-0.000445300      7.24213     -36.5218 
0.000268156      9.01803     -93.6239 
9.06781e-05      9.16830      127.332 
-0.000368086      11.7301      179.756 
0.000442087      11.9553     -173.565 
0.000267576      8.44593      124.386 
-0.000427458      10.1304      170.798 
-0.000341891      5.21279     -81.8388 
0.000265087      8.65150     -150.502 
0.000601717      5.97985     -152.621 
-0.000347328      8.77269     -65.7723 
0.000258426      4.83480      35.8270 
0.000255233      9.38636      34.4519 
8.97017e-05      7.49545     -44.6757 
0.000350941      5.42219      127.356 
-0.00208339      11.0511      170.205 
-0.000420115      6.68797      29.8618 
0.000263010      9.17625      127.294 
-0.000347935      7.62938     -172.847 
0.000257004      9.43624     -133.454 
0.000588578      9.69595      161.042 
-0.000958792      7.87462      110.829 
8.84208e-05      5.17004      179.778 
0.000175857      6.92406      171.612 
-0.00169140      1.63355      172.614 
-0.000175300      13.0403     -131.145 
-0.000336021      12.8561     -135.693 
-8.81248e-05      3.93707      161.335 
-0.000260543      8.34841      18.4349 
0.000259285      11.6450     -174.431 
0.000345043      5.48272     -99.3421 
-0.000504328      2.31953      174.806 
0.000413497      6.01920     -16.2069 
0.000671807      5.14001      179.889 
-8.72844e-05      5.44207      88.4206 
0.000503570      12.9688     -138.814 
0.000415833      10.5647      130.278 
-0.000338603      8.46362      148.676 
0.000254746      11.0462     -139.663 
-0.000320511      8.61757     -107.909 
0.000674466      13.6704      149.345 
-0.000740149      3.59924      171.532 
8.67110e-05      12.4177      152.155 
-0.00309817      11.7201      179.756 
0.000256011      3.34940     -120.700 
0.000328582      4.26297     -170.140 
-0.000743491      2.04201     -127.038 
-0.000550559      11.5540     -68.0973 
0.00265937      8.15001      89.9297 
0.000502178      13.0985     -58.2635 
0.000420644      6.93395      171.624 
-0.00203167      3.90544      161.333 
0.000819174      5.88471     -158.361 
8.58929e-05      9.01740     -93.5605 
0.000316669      3.29621     -46.4751 
0.00197414      4.39118     -82.1467 
-0.000167707      5.45155      88.6336 
0.000793778      8.45159      124.442 
0.000168826      5.67341     -107.860 
0.000251247      6.60307     -5.73650 
0.000331151      11.7842     -80.7215 
-0.000170150      7.23410     -36.5689 
0.000656069      9.16224      127.283 
0.000333550      5.42827      127.440 
0.000252926      5.64309     -174.815 
-0.000166552      4.87985      72.3448 
-0.000248172      10.6170     -40.1096 
0.000476841      7.75879      38.4061 
0.000249303      11.9653     -173.570 
-0.000165712      8.73412     -63.2589 
0.000628953      6.00574     -111.181 
-0.000492938      7.53236     -131.286 
0.00165459      13.4752     -52.3562 
-0.000644597      7.63930     -172.856 
-0.000242090      3.33030     -14.7873 
0.000329146      13.5194      153.226 
-0.000162637      7.18802     -36.7424 
0.000556056      11.6350     -174.427 
0.000399310      5.98873     -152.665 
-0.000162864      9.02222     -108.013 
0.000246329      5.49097     -99.2222 
-0.000321149      8.33262      18.5437 
-8.31591e-05      8.71923      149.464 
0.000487426      3.84333     -87.6141 
8.30925e-05      4.42340      31.7857 
-0.000999131      13.0393     -131.207 
-8.30254e-05      11.0609      170.214 
-0.000318401      5.86941     -28.0495 
-0.00100167      10.1517      170.760 
-0.000164018      8.57890      115.549 
-0.000132100      4.63068     -70.3129 
0.000486693      5.65396     -174.723 
0.000397928      5.33146     -117.478 
8.24918e-05      8.37683      171.280 
0.000405207      8.86676      39.4167 
-0.000864901      7.74795     -105.112 
0.000703480      10.9062     -96.3170 
-0.000621968      9.14562     -162.041 
8.22666e-05      5.72263      3.80741 
-0.000820421      7.10403     -37.0473 
0.000456524      3.35292     -120.466 
0.000926043      6.28240     -155.352 
-0.00100164      2.32948      174.828 
-8.17730e-05      8.76357     -65.7454 
0.000161762      9.81832      43.4318 
0.000383943      1.62963      66.1089 
-8.11195e-05      8.61734     -108.120 
0.00206046      13.6755      149.309 
-8.10955e-05      7.14200     -36.9180 
-8.09678e-05      8.51155      148.794 
-0.000257583      4.63406     -70.1965 
0.000930353      13.1038     -58.2264 
0.000241040      13.5596      153.265 
0.000678923      5.81612      59.8641 
0.000239349      5.71265      3.81407 
-8.08021e-05      5.38212      102.229 
-0.000157303      8.81458     -41.3204 
0.000160532      5.43435      127.524 
0.000314823      6.94531      171.555 
8.03787e-05      6.21328     -101.889 
0.000463985      12.9613     -138.785 
-0.000471155      9.27579     -110.115 
-8.01187e-05      11.0022     -168.465 
-0.00172423      8.23924      2.71308 
0.000378680      4.43191      31.7176 
0.000237177      5.49925     -99.1026 
-7.99789e-05      8.61792     -109.171 
0.000314458      5.13001      179.888 
7.97132e-05      5.67035     -107.764 
-7.96669e-05      8.71062      149.431 
0.000601065      15.7222     -128.933 
7.95859e-05      8.93378      161.058 
-0.000157719      12.6936     -129.886 
-0.000461742      12.2800     -94.6242 
0.000312718      5.43253      127.671 
-0.000603732      7.52577     -131.229 
0.000438754      11.0538     -139.697 
-0.000230036      5.20009     -82.0413 
0.000156626      6.62397     -5.80527 
-0.000695892      8.56988      115.578 
0.000230052      11.7826     -80.7695 
0.000408630      3.83256     -87.9066 
0.000837778      13.5685      153.284 
0.000310974      5.66392     -174.732 
-0.000227931      8.72963     -63.3175 
0.00117263      8.86539      39.5077 
-0.000835951      9.73594     -92.0013 
-0.000523033      8.62121     -109.234 
-7.84131e-05      4.34836      170.603 
0.00112055      9.66433      161.040 
0.000231549      10.5582      130.236 
0.000304736      5.70268      3.82076 
-0.000868886      11.9767      146.960 
-0.000592086      5.27853     -19.3618 
-0.000297755      8.50300      148.759 
0.00129597      5.89033     -158.488 
-0.000300457      6.70036      29.7025 
-0.000379953      4.35822      170.624 
-0.000152502      5.46111      88.8458 
-0.000378768      3.60072      171.375 
-0.000376110      12.7000     -129.921 
0.000228255      5.50913     -99.0862 
0.000152821      4.08579      50.6613 
0.00213248      3.83221     -88.0560 
0.000596819      5.10000      180.000 
0.000301292      9.15618      127.233 
7.68097e-05      9.81872      43.3493 
-0.000594522      9.27235     -110.057 
0.000294783      6.63392     -5.79653 
0.000734325      5.43865      127.755 
0.000448229      5.67388     -174.742 
0.00117242      11.6260     -174.373 
-7.56197e-05      12.8488     -135.599 
0.000505316      5.33608     -117.574 
-0.000433147      9.13611     -162.021 
-0.000147979      2.03600     -126.814 
-0.000148556      7.22607     -36.6162 
0.000147654      5.66731     -107.668 
-0.000433884      7.64055     -172.782 
0.000148233      4.25312     -170.117 
-0.000219282      8.11529      41.9032 
0.000291509      6.93542      171.543 
0.000292067      10.5441      130.230 
-0.000243640      4.63746     -70.0802 
-0.000148126      7.75057     -105.184 
0.000146615      4.08721      50.8585 
-7.42050e-05      8.65675     -175.495 
-0.000353872      5.87824     -28.0037 
0.000147146      5.51744     -98.9672 
0.000436528      13.1091     -58.1892 
-0.000890850      7.86504     -119.727 
0.000291456      13.5774      153.303 
-7.37256e-05      8.31685      18.6528 
0.00213273      13.4831     -52.3822 
-0.000567800      12.2792     -94.5776 
7.34856e-05      13.1907      149.625 
0.000630357      10.9051     -96.2648 
-7.34323e-05      3.61212      171.242 
-0.000776392      7.75761     -105.093 
-0.000289099      4.36809      170.645 
-0.000143275      2.15058     -162.408 
0.000205838      15.7285     -128.961 
0.000144839      12.9537     -138.756 
0.000144911      5.69270      3.82746 
0.000415761      6.29149     -155.390 
7.30213e-05      11.7810     -80.8175 
0.000420703      6.00936     -111.270 
7.28153e-05      9.14217      127.221 
-0.00184785      2.97155     -67.2318 
-0.000143923      5.47074      89.0574 
-0.000754923      2.29872      175.009 
0.000349473      8.45725      124.498 
7.26415e-05      11.9940     -173.633 
7.26052e-05      9.82642      43.2268 
0.000353449      5.96672     -152.447 
-0.000213279      5.18745     -82.2448 
-7.23415e-05      7.86590      12.4814 
0.000285778      5.68384     -174.751 
7.23159e-05      6.02200     -16.2983 
0.000285134      5.52577     -98.8486 
-0.000688662      12.7077     -129.892 
-0.000213995      3.60224      171.218 
-0.000756059      6.24584     -140.653 
-0.000139248      2.33944      174.850 
0.000558398      5.09000      180.000 
0.000415835      9.13613      127.171 
-0.000623775      8.57602      36.9902 
-0.00107272      10.1616      170.769 
-0.000759096      9.26893     -109.999 
-7.17229e-05      13.2733     -145.280 
-0.000209442      8.49445      148.724 
0.00103227      13.6177      153.341 
0.000209014      11.1526     -143.716 
-0.000204931      1.62364      172.569 
0.00105001      13.0953     -58.2033 
-0.000207311      10.0317      140.136 
-7.12990e-05      6.58730      30.7698 
-7.12703e-05      3.02035     -173.346 
7.12509e-05      13.3631      153.032 
0.000140481      4.24156     -170.227 
0.000139366      4.09353      50.7500 
-0.000345115      7.51918     -131.172 
0.000275450      5.66428     -107.571 
-7.08065e-05      8.32633      18.6308 
0.000477556      5.70202      3.72050 
-0.000536318      3.61365      171.085 
0.000140617      10.0222     -69.3770 
7.05966e-05      6.63675     -158.150 
7.04524e-05      9.83464      43.0222 
0.000135396      6.65483     -5.86480 
-0.000139736      10.2138     -43.5719 
-0.000408803      4.37796      170.667 
0.000340478      10.5377      130.188 
-0.000274001      13.2544     -145.171 
-0.000207734      4.89173     -35.3471 
-0.000535580      13.0327     -131.174 
0.000603383      5.44656      127.690 
0.000136700      4.44042      31.6498 
0.000459271      11.7598     -137.068 
6.95024e-05      13.1785      149.543 
6.94960e-05      12.9462     -138.727 
0.000342066      5.69379     -174.760 
0.000206385      5.53412     -98.7304 
-0.000489797      4.64087     -69.9642 
-0.000137533      8.57421      115.639 
-6.92259e-05      8.87698      36.0179 
6.92094e-05      6.94678      171.473 
-0.000135696      12.8344     -135.474 
0.000135882      5.99096     -170.003 
0.000709612      10.0187     -69.4306 
0.000137369      8.51627     -17.9882 
-0.000135136      9.21739     -72.9018 
-0.000593201      9.12019     -161.923 
-6.87908e-05      6.56668      30.9787 
6.87592e-05      6.62747     -158.118 
-0.00100670      10.1997     -43.5699 
-6.85449e-05      5.28797     -19.3258 
0.000134582      6.93689      171.461 
0.000263302     0.913510      41.8940 
0.00108751      8.87311      39.4666 
6.82859e-05      11.7794     -80.8655 
-6.82605e-05      2.14105     -162.327 
-0.000786580      8.88507      35.9800 
-6.81582e-05      7.87566      12.4657 
-0.000400882      12.2784     -94.5311 
-6.80944e-05      8.51902     -120.237 
0.000264945      4.23170     -170.204 
6.78858e-05      9.84246      42.9002 
0.000854691      8.38067     -23.9347 
-0.000329755      5.17487     -82.4493 
0.000134724      6.80089     -76.3929 
-0.000262782      8.31058      18.7402 
-0.00213326      8.56086      115.607 
0.000586891      8.52578     -17.9674 
0.000133510      5.34072     -117.669 
-0.000700687      4.90567     -35.3748 
6.75837e-05      7.96193     -74.7070 
-0.000323633      3.01042     -173.324 
0.000333490      5.08000      180.000 
-0.00109659      7.76022     -105.164 
-0.000264742      8.53384      148.806 
0.000327395      5.95785     -152.403 
0.000200253      5.54250     -98.6126 
-6.72736e-05      6.55811      31.0237 
0.000391419      11.0615     -139.730 
0.000703297      5.45268      127.774 
-6.70726e-05      8.62082     -109.023 
-0.000324465      8.87478      36.1081 
-0.000133483      8.56519      115.668 
-0.000129641      5.30072     -19.3921 
6.68490e-05      13.1612      149.499 
-0.000551292      4.38782      170.688 
0.000736789      6.30553     -155.549 
-0.000264923      9.84370     -38.4416 
-0.000644804      8.58401      36.9500 
0.000519838      7.73890      69.1060 
-0.000325759      11.0412      170.196 
0.000198549      13.6806      149.273 
0.000715475      13.6266      153.360 
0.000197492      9.61953     -66.9265 
-0.000195959      4.34925      22.4375 
-0.000132277      8.08129      14.0362 
-6.62043e-05      10.6017     -40.1792 
0.000260147      5.70375     -174.769 
-0.000194141      2.30868      175.030 
0.000948926      5.88103     -158.452 
0.000131346      6.01506     -111.147 
6.60759e-05      12.9387     -138.697 
0.000933633      5.69204      3.72703 
6.60352e-05      9.12212      127.159 
0.000745186      7.97687     -74.5874 
0.000192931      9.84299      42.8180 
0.00226102      8.14006      89.7888 
-0.000445051      12.7141     -129.927 
0.000513695      6.81534     -76.2492 
0.000509537      10.9140     -96.2069 
-0.000382045      6.54615      31.1889 
0.000130671      13.1526      149.477 
-0.000194517      7.51260     -131.114 
-0.000192318      11.9851      146.986 
0.00214399      5.05001     -179.887 
-6.54654e-05      10.6403     -103.644 
0.000382677      9.11608      127.109 
-0.00303274      9.85154     -38.4055 
6.54938e-05      4.98451     -175.628 
-6.53957e-05      9.27151     -109.862 
0.000575333      13.6892      149.295 
-0.000130265      8.07402      14.1223 
0.00111823      15.8599     -137.376 
0.00149703      13.3453      152.993 
-0.000532677      1.63230      172.962 
0.000193399      5.55090     -98.4950 
0.000249645      5.66127     -107.475 
0.00239842      11.6360     -174.378 
6.48767e-05      5.33653     -117.814 
-0.000253733      8.39793      155.144 
6.47994e-05      11.7778     -80.9136 
-0.000193089      12.2684     -94.5348 
0.000250160      4.97531     -175.504 
0.00198020      13.4911     -52.4081 
-0.000253322      10.6158     -40.1857 
0.000913541      9.61562     -66.9814 
-0.000380657      8.08372      14.1050 
-6.44617e-05      5.49023      89.4782 
-0.000128149      10.6379     -103.592 
-6.44463e-05      10.0458      140.129 
-6.43787e-05      9.26551     -109.941 
-0.000186326      8.61450     -107.846 
0.000190074      10.5312      130.147 
0.000310505      6.01868     -111.236 
0.000127161      12.9312     -138.668 
6.41649e-05      13.3276      150.415 
-6.40083e-05      10.8950      144.866 
6.39710e-05      1.63878      66.2505 
-0.000126738      8.52529      148.771 
0.00227643      8.37153     -23.9625 
0.000123975      5.34120     -117.908 
0.000168135      8.39812      171.233 
-0.000361641      3.61522      170.929 
-0.000370790      5.16236     -82.6547 
6.35636e-05      6.00081     -170.020 
-0.000122510      6.79812      28.7517 
-0.000187320      8.32005      18.7181 
-0.000187389      9.26812     -109.804 
-0.00115847      4.36395      22.2159 
0.000623919      13.6579      153.379 
6.33820e-05      13.1440      149.455 
0.000248706      5.71371     -174.778 
-0.000125871      6.25358     -140.711 
6.32793e-05      15.7081     -128.928 
6.32687e-05      6.92701      171.449 
-0.000546419      7.86878     -119.627 
-6.31407e-05      10.6282     -103.605 
-0.000180190      13.0262     -131.140 
-0.000310437      11.0314      170.188 
-0.000371379      12.2676     -94.4883 
-6.31040e-05      8.21149      11.0226 
0.000125162      5.56079     -98.4798 
6.28892e-05      13.3189      150.394 
-0.000123190      3.89597      161.286 
0.000304757      5.94899     -152.358 
0.000721999      7.74247      69.0369 
-0.000123483      7.50603     -131.057 
-0.000482541      10.6259     -103.552 
-0.000779018      10.1829      170.732 
-0.000186349      8.22130      11.0092 
-0.000123728      8.51674      148.736 
0.000123351      13.1389      149.492 
0.000297797      4.37858     -82.3881 
-0.000629821      13.1758     -144.826 
-0.000473245      9.72630     -92.0622 
0.000366850      13.6978      149.316 
0.000305121      6.81297     -76.3309 
6.20354e-05      6.67575     -5.93264 
0.000241461      11.0550     -139.770 
-0.000305025      8.09342      14.0878 
0.000120619      7.77010      90.2950 
-0.000122150      10.0599      140.122 
0.000477699      9.11005      127.059 
0.000240018      9.84354      42.7357 
-0.000475560      13.0271     -131.078 
-0.000415571      9.12969     -161.942 
0.000122751      5.56922     -98.3629 
0.000121534      4.22185     -170.181 
-0.000122169      6.25218     -140.582 
0.000180888      9.67378      161.059 
-0.00123862      7.76284     -105.236 
6.15110e-05      11.7762     -80.9616 
-0.000238003      12.7047     -117.977 
6.14731e-05      7.17137      178.881 
-0.000242369      8.58600      36.8566 
-0.000182591      8.25867      10.8881 
-0.000181760      3.62509      170.953 
0.000181635      8.53530     -17.9467 
0.00190020      13.6668      153.397 
6.11057e-05      6.01240     -169.942 
-0.000229959      4.39769      170.709 
0.000121635      10.5248      130.105 
-6.10125e-05      6.53425      31.3547 
-0.000176804      11.9935      147.012 
6.09747e-05      15.6878     -128.894 
0.000239910      10.9151     -96.2590 
6.09215e-05      12.9237     -138.639 
-0.000179376      10.6081     -40.2205 
-0.000235475      12.5695     -145.109 
-0.000179615      3.00048     -173.301 
0.000117755     0.920978      41.4785 
0.000298208      5.45881      127.857 
-0.000120620      8.55613      148.818 
-0.000237062      12.7205     -129.961 
0.000169189      8.40953      171.176 
-0.000119072      5.31347     -19.4580 
0.000120758      8.39972     -11.5373 
0.00182167      13.8487      145.771 
0.000238913      5.57767     -98.2463 
-0.000239716      11.0429      170.145 
-0.000178754      9.26473     -109.745 
-0.000350762      8.38886      155.115 
-0.000238133      12.2668     -94.4417 
-6.02076e-05      5.52001      90.1038 
-0.000236977      6.52571      31.4004 
-6.01727e-05      8.26849      10.8751 
0.000175932      13.1303      149.470 
-6.00546e-05      7.20201     -36.7585 
-0.00126432      4.64431     -69.8483 
0.000297268      13.7064      149.337 
5.98888e-05      5.72367     -174.787 
-0.000118229      8.31380      18.8054 
5.96921e-05      13.3102      150.373 
-0.000119248      8.08616      14.1737 
0.000523144      6.82743     -76.1876 
0.000523347      8.39773     -11.4705 
-5.96504e-05      8.27832      10.8620 
0.000465115      8.88083      39.4256 
0.000118659      10.5183      130.064 
-0.000730501      4.89752     -35.4425 
-0.000287583      5.14992     -82.8612 
-5.94532e-05      2.47081     -82.5586 
0.000117416      5.46495      127.939 
5.94454e-05      12.9087     -138.580 
-0.000177464      8.30591      10.7553 
5.94417e-05      15.6737     -128.888 
0.000117135      11.8106     -168.176 
-0.000117754      6.25991     -140.640 
0.000513992      15.8605     -137.427 
0.000117577      7.99185     -74.4682 
-5.91983e-05      12.5766      166.715 
0.000398871      5.65828     -107.378 
0.00270480      13.4990     -52.4340 
0.000451264      10.0152     -69.4841 
-0.000117289      8.54757      148.783 
0.000117416      10.4006     -104.704 
-0.000462630      11.0331      170.136 
-0.000340227      8.59400      36.8166 
-0.000459696      8.09586      14.1564 
0.000570916      5.70138      3.62021 
-0.00126256      11.3066      45.0358 
0.000116518      10.5134     -171.577 
-5.87572e-05      10.0663      140.078 
-0.000285326      11.3349      134.893 
0.00134916      13.7150      149.359 
-0.000175276      8.31573      10.7424 
5.86610e-05      11.0889     -81.9649 
0.000116308      6.02439     -111.113 
-0.000231852      12.2661     -94.3951 
0.000115461      5.73363     -174.797 
-0.000116292      8.09931     -124.436 
0.000116408      5.58614     -98.1301 
0.000708335      13.3363      152.974 
0.000287222      11.0875     -82.0161 
0.000172549      8.51319     -17.9242 
-0.000509960      10.2069     -43.5312 
-5.81431e-05      10.0920     -165.716 
0.000171729      10.9162     -96.3112 
0.000170855      5.94013     -152.313 
-0.000228580      10.0804      140.071 
-0.000114575      2.10609     -161.737 
-0.000230692      8.35319      10.6239 
0.00101794      13.6758      153.416 
0.000617991      12.0772     -149.443 
5.80252e-05      12.9012     -138.551 
-0.000340078      3.62668      170.797 
-0.000395611      7.87254     -119.528 
0.00144564      10.3935     -104.772 
0.000452250      15.8673     -137.401 
-0.000171313      9.26136     -109.687 
-0.000340762      6.51388      31.5672 
-0.000689371      1.64222      173.005 
5.78436e-05      12.1661      164.262 
-0.000395454      10.6235     -103.500 
5.75987e-05      10.5119      130.022 
-5.75875e-05      2.47212     -82.3288 
0.000171519      5.46323      128.087 
-5.75567e-05      10.6005     -40.2554 
0.000171193      5.59464     -98.0142 
5.74771e-05      8.41941      171.187 
0.000282961      9.10403      127.008 
0.000112320      9.84411      42.6535 
0.000113909      7.77016      90.3687 
-0.000283373      5.23080      163.678 
0.000448230      9.61171     -67.0362 
-5.72557e-05      8.32327      18.7832 
5.72356e-05      10.3961     -104.825 
-0.000277617      12.5743      166.759 
-0.000339861      8.36301      10.6112 
5.71991e-05      12.8937     -138.521 
-5.70969e-05      6.26765     -140.698 
-5.70681e-05      13.1676     -144.801 
-0.000225369      8.10191     -124.337 
0.000277801      8.97586     -116.108 
5.69094e-05      4.21372     -170.024 
-0.000225886      12.2653     -94.3485 
0.000280731      12.4955     -166.108 
5.69022e-05      11.8204     -168.186 
0.000331097      7.73672      68.9412 
-0.000441130      10.2043      170.695 
-5.68256e-05      12.7269     -129.996 
-5.67537e-05      8.53902      148.749 
5.65574e-05      12.1757      164.274 
0.000112866      10.5035     -171.569 
5.65937e-05      4.98528     -175.513 
0.000111579      13.0815     -58.2175 
0.000112000      6.02800     -111.201 
-0.000112076      12.7000     -117.937 
-0.000555889      11.0232      170.128 
5.64958e-05      5.46941      128.169 
0.00115987      8.38473     -23.9972 
5.63955e-05      5.59604     -98.1156 
-0.000279990      7.76548     -105.307 
-0.000111932      8.33274      18.7611 
0.00163791      11.0861     -82.0672 
0.000111479      4.37727     -82.5178 
-0.000222401      2.97543     -67.0543 
-0.000549960      9.85938     -38.3694 
5.62135e-05      11.8029     -168.119 
-5.61885e-05      13.0206     -131.045 
0.000331745      6.82505     -76.2692 
-5.61613e-05      3.60257     -61.3007 
-0.000495465      5.24040      163.709 
0.00172448      8.39574     -11.4036 
0.00392103      13.7236      149.380 
-0.00125078      8.37284      10.5986 
-0.00156477      3.59778     -61.4404 
5.59189e-05      5.47559      128.251 
-5.59322e-05      5.32624     -19.5236 
0.000332050      13.7201      149.323 
0.000275180      5.60454     -98.0000 
0.000111412      10.4936     -171.561 
-0.000326239      8.89317      35.9421 
0.000382122      5.69140      3.62657 
0.000111032      7.76006      90.2215 
-5.58184e-05      10.0868      140.027 
-0.000275856      8.10555      14.1391 
0.000220271      8.88856      39.3847 
-0.000166109      12.2646     -94.3020 
0.000110791      11.8126     -168.129 
0.000275836      8.31386     -9.06578 
-0.000435898      6.50536      31.6133 
-5.55773e-05      13.1839     -144.851 
-5.55571e-05      9.11379     -161.843 
0.000274171      9.09801      126.958 
-0.000761250      7.76987     -105.145 
-5.54325e-05      2.03828     -127.826 
0.000323422      10.0857      35.3131 
5.55132e-05      12.5052     -166.119 
0.000110201      5.48179      128.333 
-5.53709e-05      10.5929     -40.2904 
0.000219121      7.60953     -78.2471 
0.00107814      11.6459     -174.382 
5.52841e-05      5.87173     -158.416 
0.000108362      8.52270     -17.9035 
5.52751e-05      13.1217      149.448 
-5.52073e-05      8.53047      148.714 
5.51717e-05      6.32874     -155.743 
-0.000109947      8.10756     -124.396 
-5.51080e-05      9.72594     -92.0034 
5.50644e-05      12.8712     -138.433 
-5.50783e-05      7.86762     -119.465 
0.000163194      6.03372     -111.078 
-0.000163356      8.34221      18.7390 
-0.000942334      10.6212     -103.447 
0.000108898      5.90942     -152.047 
0.000109308      10.4837     -171.553 
-5.48756e-05      4.40918      170.602 
-5.47976e-05      12.5613     -145.083 
-0.000584059      10.2142     -43.4926 
0.000586065      4.89802     -127.034 
0.000538356      12.4979     -166.064 
-0.000163242      7.87142     -119.366 
-0.00907630      12.3561     -172.139 
0.000377980      9.60781     -67.0911 
0.000487010      13.7287      149.344 
-5.46042e-05      2.99055     -173.279 
 0.0111251      13.6892      153.398 
-0.00105561      11.0134      170.119 
-0.000108696      12.2638     -94.2554 
-5.44438e-05      2.97935     -66.8772 
-5.44207e-05      5.13755     -83.0686 
5.44132e-05      11.8224     -168.139 
-0.000108518      12.3099     -67.9566 
-0.000107727      9.71667     -92.1233 
0.000484613      8.32373     -9.05493 
-5.44001e-05      8.10454     -124.239 
-5.43556e-05      6.80210      28.6373 
5.42593e-05      5.49263      128.644 
0.000842088      15.8679     -137.452 
0.00434678      13.5069     -52.4599 
-0.000108121      5.18649     -21.9655 
0.000107641      6.71763     -6.06704 
5.41375e-05      7.76010      90.2953 
-5.40768e-05      4.41905      170.623 
-0.000107460      11.3137      134.857 
0.000422104      8.98484     -116.080 
0.000160377      10.9261     -96.3054 
-0.000322301      5.25000      163.740 
-0.000107283      9.12329     -161.863 
0.000318458      6.83953     -76.1263 
-0.000316711      8.09831      14.2250 
-0.000318662      8.11017     -124.297 
-5.40168e-05      10.1009      140.020 
-0.000264585      2.96623     -66.9790 
-0.000107048      2.99174     -173.089 
-0.000107491      1.65215      173.047 
5.38826e-05      8.98753      25.0824 
5.38226e-05      5.49888      128.725 
0.00126226      8.39387     -23.9694 
0.000156098      10.4738     -171.545 
-0.000107406      7.86652     -119.302 
-0.000670492      12.5720      166.804 
0.000422470      7.59368     -78.4533 
-0.000213302      13.1594     -144.776 
0.000160317      9.09200      126.908 
0.000159213      12.0737     -149.378 
-5.36715e-05      12.2631     -94.2088 
0.000211424      5.61445     -97.9858 
5.35804e-05      5.51142      128.887 
-0.000159132      12.3136     -67.9135 
-5.35004e-05      8.35168      18.7170 
-0.000371171      14.2478     -123.289 
5.34657e-05      5.90059     -152.002 
5.33562e-05      10.4862      129.855 
5.34680e-05      13.7322      149.401 
-5.33730e-05      9.25800     -109.629 
0.000106421      11.0847     -82.1184 
-0.000158569      5.19951     -22.0265 
0.00101972      13.7373      149.365 
-0.00154624      7.77249     -105.216 
-0.000362509      4.35470      22.2656 
5.32615e-05      8.89770      39.2532 
-0.000263049      12.2531     -94.2122 
0.000315662      5.71074      3.51375 
-0.000159018      7.86548     -119.140 
5.31526e-05      6.03947     -110.956 
-0.000264445      5.25960      163.770 
-0.000470156      6.49685      31.6595 
0.000106138      8.30241     -9.00850 
-0.000619876      1.65097      173.392 
0.000106007      5.51770      128.968 
0.000263367      9.60393     -67.1461 
-0.000261997      4.88938     -35.5104 
5.30741e-05      8.97367      25.1943 
5.30037e-05      5.06001     -179.887 
5.29268e-05      10.3316      129.344 
0.000307996      7.74032      68.8721 
0.000971843      12.4906     -166.008 
0.000523747      8.31229     -8.99771 
-0.000158077      8.36486      10.6786 
-5.28207e-05      10.2142      170.704 
-5.28654e-05      10.0932      139.984 
5.28048e-05      5.89177     -151.956 
0.000104484      6.73858     -6.13362 
-0.000104967      8.90351      35.8145 
5.26628e-05      9.08600      126.857 
0.000209283      13.3274      152.954 
5.26659e-05      5.52399      129.049 
-0.000207482      2.98181     -173.066 
0.000104844      10.3049      129.250 
-0.00113435      8.37469      10.6659 
-0.000156866      13.1513     -144.751 
0.000156533      6.04525     -110.833 
0.000104559      10.4639     -171.537 
-5.25246e-05      8.37690      18.5864 
0.000879805      11.6370     -174.329 
0.00230443      8.39377     -11.3367 
-0.000104832      7.86451     -118.977 
-0.000416404      5.26920      163.801 
0.000104632      8.09904      79.7584 
-0.000415518      14.2562     -123.266 
0.000360326      11.7446     -136.932 
5.23151e-05      9.10000      126.870 
5.23110e-05      5.87003     -151.732 
0.000104343      5.53030      129.129 
-0.000104409      13.6314     -153.040 
0.00513117      13.7459      149.387 
0.000307598      10.0915      35.3595 
5.22010e-05      5.03004     -179.772 
0.000155096      10.9272     -96.3576 
-0.0503053      12.3548     -172.185 
-0.000362193      14.1902      146.993 
-0.000103794      7.65634      26.3642 
-0.000154470      11.2926      134.821 
-5.20713e-05      13.1431     -144.726 
-0.000153758      10.2355      170.667 
0.000258686      9.60005     -67.2011 
-5.20264e-05      12.3081     -67.8528 
0.000307977      5.70075      3.51991 
-0.000154856      8.91162      35.7768 
-0.00171525      3.59301     -61.5804 
-5.19741e-05      7.85879     -118.750 
5.19852e-05      9.08001      126.807 
0.00215376      8.14002      89.8592 
-0.000154893      8.11281     -124.199 
-0.000256967      8.81762     -45.0459 
0.000308592      8.10083      79.6888 
0.000206257      13.3185      152.935 
5.18518e-05      10.2986      129.207 
-0.000410311      13.6403     -153.059 
-5.18908e-05      9.71631     -92.0644 
0.000256194      6.85406     -75.9840 
-0.000103042      10.1073      139.977 
-5.18075e-05      8.38638      18.5646 
-5.18123e-05      5.13635     -83.1794 
0.000103249      5.62435     -97.9716 
5.18131e-05      5.86123     -151.686 
0.000255593      7.59569     -78.3794 
0.000462856      8.32216     -8.98694 
0.000205626      4.90405     -127.127 
-0.00165403      11.3066      44.9642 
0.000154206      5.53661      129.209 
0.000153879      16.1891     -136.176 
-0.000253745      10.2214     -43.4540 
-5.16944e-05      7.86360     -118.814 
-0.000204635      12.2524     -94.1656 
-5.16084e-05      5.27881      163.831 
5.15342e-05      12.8339     -138.285 
0.000102560      10.4541     -171.529 
-0.000102520      12.3174     -67.8704 
-5.15531e-05      7.85796     -118.587 
-0.000253953      4.61567     -57.2051 
-5.14977e-05      5.19024     -22.0679 
-0.000102597      13.1349     -144.701 
0.000153451      6.05105     -110.711 
-0.000560831      14.2591     -123.211 
0.000102564      10.2922      129.164 
-0.00135659      11.0348      170.085 
-0.000204591      7.83626     -117.513 
-0.000256015      5.28160      163.727 
-0.000404484      7.65184      26.4646 
5.13478e-05      6.35708     -156.056 
5.13465e-05      9.09400      126.819 
0.00583541      13.6803      153.379 
0.00116009      8.40301     -23.9417 
0.00303524      12.4736     -165.941 
-5.12852e-05      13.2626     -145.196 
0.000254981      9.59618     -67.2561 
-0.000456607      14.2125      147.003 
5.11394e-05      5.84363     -151.593 
-0.000757676      13.0425      155.203 
-0.00120486      9.85775     -38.4510 
-0.000305030      8.51009     -136.666 
-0.000203669      6.48834      31.7058 
0.00158782      15.8685     -137.503 
0.00170722      13.7545      149.408 
-5.10251e-05      8.11844     -124.258 
-0.000101577      4.88124     -35.5786 
-0.00139013      8.81056     -45.0920 
0.000658641      8.33204     -8.97620 
0.000151783      8.98045     -116.023 
0.000101848      13.3096      152.915 
5.09091e-05      9.07402      126.756 
-5.09309e-05      8.42115      18.4134 
5.09478e-05      12.8264     -138.255 
0.000503152      4.90601     -126.963 
-0.000505822      5.29120      163.757 
0.000706545      11.6469     -174.333 
0.000151950      10.2859      129.121 
-0.000151222      7.84088     -117.578 
0.000703760      12.8969     -115.194 
-0.000101434      8.91974      35.7393 
0.000353291      8.09460      79.5369 
0.000452512      9.87670      37.5544 
-5.07800e-05      2.96233     -67.1570 
5.07662e-05      5.83484     -151.546 
0.000101431      10.9360     -96.2997 
-0.000151760      13.1186     -144.650 
0.000150906      5.54294      129.289 
0.000252179      6.65446     -85.0862 
5.07010e-05      11.8314     -82.1301 
0.000201912      13.3007      152.896 
-0.000452340      7.83592     -117.350 
0.000201664      9.95172      39.1274 
0.000100692      5.62574     -98.0725 
0.000100732      6.76948     -6.19064 
-0.000302950      8.34707      10.7715 
-0.000250399      8.23831      2.57414 
0.000100724      5.88667     -158.578 
5.05894e-05      8.91464      39.0814 
0.000151193      5.72011      3.40763 
5.05232e-05      10.2656      129.069 
-0.000201290      6.47660      31.8741 
0.000251926      11.0988     -81.9721 
0.000151210      9.59231     -67.3112 
0.000448845      10.9371     -96.3518 
0.000250420      6.86862     -75.8424 
-0.000201402      14.2620     -123.155 
0.000100750      13.8930     -55.7952 
5.04811e-05      6.34794     -156.019 
-5.04046e-05      10.1137      139.933 
-0.000150969      8.50282     -136.620 
0.000199551      16.1963     -136.201 
-5.04020e-05      8.44647      18.2848 
0.000150308      6.05337     -110.501 
5.04141e-05      5.80450     -151.271 
0.000100366      12.8189     -138.225 
-5.03992e-05      8.10800      14.2076 
-5.03120e-05      2.95846     -67.3354 
-0.000547631      13.6359     -153.003 
0.000150324      7.58189     -78.5122 
-0.000545143      11.7646      176.296 
0.000199717      11.7373     -136.899 
0.000351131      8.32061     -8.91893 
-0.000995957      8.35690      10.7586 
-0.000100390      13.1105     -144.625 
0.000150268      10.2796      129.078 
0.000100247      11.8400     -82.1847 
-5.02598e-05      12.3211     -67.8273 
5.01901e-05      9.06804      126.706 
0.000299632      12.2321     -155.719 
 0.0549640      8.39181     -11.2698 
-0.000250446      14.2674     -123.189 
5.02320e-05      10.3890     -104.892 
-0.000498378      14.2263      146.991 
-5.01740e-05      8.92202      35.6497 
-0.000100075      7.12026      25.8093 
-0.000199058      12.2516     -94.1189 
0.000199952      9.58846     -67.3663 
-0.000199923      8.50323     -136.716 
-0.000448846      5.30080      163.787 
0.000199772      13.2918      152.876 
-0.000149659      1.64104      173.351 
0.000642451      10.3864     -104.839 
0.000298260      5.71013      3.41360 
5.00411e-05      8.92388      38.9506 
5.00263e-05      5.79573     -151.224 
-5.00190e-05      8.47184      18.1569 
-0.000347964      10.2192     -55.2836 
0.000446989      8.09642      79.4673 
0.00143740      8.33049     -8.90827 
-0.000497167      13.0558      155.182 
0.000546383      11.1002     -81.9210 
-0.000198662      10.2454      170.676 
-0.000594308      7.77512     -105.287 
0.00172930      11.6380     -174.280 
0.000198613      13.8874     -55.8293 
-9.96309e-05      13.1023     -144.600 
-0.000645377      14.2703     -123.133 
4.98502e-05      10.2593      129.026 
4.98231e-05      6.35303     -156.138 
0.000297382      6.64449     -85.0788 
4.98695e-05      9.94542      39.0827 
-0.000149020      6.46811      31.9209 
-4.98613e-05      8.48134      18.1359 
4.98057e-05      12.8107     -138.132 
-4.97997e-05      8.09108      14.3110 
0.00394387      13.6713      153.360 
-9.94637e-05      8.93015      35.6123 
4.97982e-05      6.64364     -85.1647 
4.97899e-05      8.98506     -115.938 
-9.94497e-05      7.74919     -107.266 
 0.0112600      13.5149     -52.4857 
0.000395144      7.58388     -78.4382 
9.91482e-05      8.51012     -17.8601 
9.94056e-05      9.58462     -67.4215 
-0.000346822      8.49596     -136.669 
9.93397e-05      10.2733      129.034 
0.000740927      9.30375     -41.2960 
4.97222e-05      5.78697     -151.176 
-4.97083e-05      2.95081     -67.6938 
0.000985762      9.86878      37.5898 
4.96620e-05      6.80038     -6.24715 
4.96634e-05      5.87736     -158.543 
4.96707e-05      9.06206      126.655 
-9.90979e-05      7.11126      25.8444 
-0.000345979      13.0942     -144.574 
4.96763e-05      11.8485     -82.2392 
0.000542811      4.91203     -127.057 
-0.000198283      8.50676      18.0090 
-9.92875e-05      8.05388     -1.77880 
0.000198078      13.2829      152.856 
0.00197838      8.41620     -23.9763 
-0.000395879      7.84052     -117.415 
0.000395081      16.6554     -133.905 
-0.000148646      12.1592     -73.8604 
0.000796425      12.2818     -128.288 
-4.96347e-05      4.64037     -56.9606 
0.000885878      12.9017     -115.135 
4.96247e-05      9.93766      39.1190 
0.000541499      13.8570      145.794 
-0.000494016      5.31040      163.817 
9.89750e-05      12.8033     -138.103 
-0.000197917      4.15723      61.4005 
0.000247327      10.2530      128.983 
0.000696349      12.2412     -155.738 
0.000148422      9.59769     -67.3893 
0.000148410      12.9011     -115.234 
-4.95071e-05      10.1214      139.970 
-0.000148189      7.75217     -107.336 
-9.89878e-05      8.04358     -1.70981 
-0.00157450      11.0250      170.076 
4.94506e-05      5.75681     -150.897 
-4.94706e-05      2.94703     -67.8737 
9.86386e-05      7.73460      68.7763 
-0.000345369      14.2485      147.001 
-9.87443e-05      8.93828      35.5749 
-0.000197013      8.23787      2.50466 
-0.000246496      12.1716     -73.8283 
-0.00118014      13.0467      155.164 
9.85915e-05      11.8472     -82.2871 
-0.000492592      9.84992     -38.4872 
-0.000197044      6.47133      31.7989 
0.000888590      10.9460     -96.2939 
-0.000197157      8.51627      17.9882 
-0.000492661      14.2733     -123.078 
-0.000147893      8.03359     -1.71194 
-0.000938673      10.2331     -55.2694 
-0.000541807      8.36672      10.7459 
-0.000540885      4.16125      61.5873 
0.000492251      11.1016     -81.8699 
-0.000147765      12.2509     -94.0723 
0.000196973      9.59385     -67.4444 
-9.85045e-05      7.84022     -117.251 
-0.000295466      3.58826     -61.7209 
-0.000540819      13.6448     -153.022 
0.000442533      11.5900     -93.3636 
0.000393596      10.2467      128.939 
0.000196834      12.7958     -138.073 
4.92936e-05      5.54928      129.369 
-0.000344175      8.48869     -136.623 
0.000196764      13.2517      152.836 
-0.00103880      10.2240      170.713 
4.92998e-05      5.74808     -150.849 
-9.84514e-05      14.2787     -123.111 
0.000147435      13.8957     -55.8525 
4.92591e-05      16.2035     -136.225 
9.83361e-05      11.7300     -136.865 
-4.92323e-05      7.10226      25.8796 
0.000196545      8.08842      79.3847 
0.00211359      8.32894     -8.84030 
0.000147368      5.70015      3.41958 
4.91983e-05      6.05231     -110.201 
4.92417e-05      6.64536     -84.9929 
-4.92003e-05      7.74861     -107.500 
-0.000687910      7.84480     -117.316 
-4.92303e-05      8.33913      10.8518 
-0.000196459      8.02359     -1.71408 
-0.000196592      8.54174      17.8622 
-0.000294749      14.2623      146.990 
-4.92259e-05      11.3137      44.9284 
-0.000786665      5.32280      163.744 
-0.000393036      13.0860     -144.549 
0.000196352      6.63453     -85.0714 
-0.00133089      11.3137      44.8568 
-0.000245556      12.1840     -73.7962 
-0.000147351      7.75163     -107.570 
4.91349e-05      11.0995     -107.080 
0.000294638      8.81223      20.9442 
-0.00149625      11.0276     -41.7285 
-0.000245501      13.4322      146.570 
0.000245514      8.14001      89.9296 
-9.81996e-05      7.09326      25.9148 
0.000147304      9.59002     -67.4996 
-0.000442144      7.14278      94.5771 
0.000441803      11.0966     -107.031 
0.000294577      16.6623     -133.930 
-4.91347e-05      8.94642      35.5377 
0.000147253      8.13006      89.7886 
0.000639747      12.2503     -155.757 
-0.000786078      8.34895      10.8389 
4.90737e-05      3.24446      110.949 
-0.00103179      14.2816     -123.056 
0.000147321      5.93178      69.0596 
0.000393983      9.28963     -41.2904 
-0.000935168      3.60656     -61.5163 
-0.000196451      6.46283      31.8456 
4.91117e-05      16.2038     -136.275 
-4.90973e-05      9.87980     -34.3174 
 0.0170562      8.38986     -11.2028 
4.91674e-05      11.1129     -81.8262 
9.82724e-05      5.22001     -143.020 
-0.000245488      8.55126      17.8417 
0.000147247      3.24089      110.784 
-0.00146354      7.77952     -105.126 
-0.000441957      9.85615     -38.5327 
0.000441871      10.2404      128.896 
0.000196343      7.57209     -78.4972 
0.000392805      9.31126     -41.2554 
-0.000196577      12.2417     -94.1223 
-9.82056e-05      8.42354     -62.0355 
-4.91094e-05      8.00331     -1.64680 
4.90795e-05      13.2428      152.816 
0.000639329      11.1143     -81.7751 
-0.000147219      14.2707      147.011 
-0.000294633      8.48142     -136.577 
4.90622e-05      11.8558     -82.3415 
0.00104993      5.21202     -142.954 
-4.90459e-05      7.99331     -1.64886 
0.00207273      11.6290     -174.226 
9.80879e-05      13.8901     -55.8866 
4.90338e-05      8.09027      79.3151 
0.000294894      12.7884     -138.043 
0.000294762      12.0262      161.429 
0.000196441      9.60309     -67.4673 
4.90769e-05      5.73935     -150.800 
-0.000540756      15.1139     -139.777 
-0.000245670      12.1964     -73.7642 
-0.000147520      9.87417     -34.2694 
9.82117e-05      4.91806     -127.150 
0.000147383      13.2339      152.796 
4.90924e-05      16.1966     -136.251 
0.000688640      8.13003      89.8591 
-0.000393289      8.41886     -62.0957 
9.85189e-05      12.2721     -51.3183 
-0.000196433      8.74108     -101.683 
-9.81966e-05      7.96304     -1.58315 
-4.90568e-05      7.74816     -107.733 
-0.000393236      8.57677      17.7167 
-0.000344043      14.2846      147.000 
-0.000592083      4.16531      61.7738 
-4.91453e-05      7.07069      26.0939 
4.91492e-05      3.25380      110.886 
9.82425e-05      6.63540     -84.9854 
4.91252e-05      5.69017      3.42559 
-0.000147319      13.6316     -152.946 
-0.000360344      11.7402      179.707 
-9.83531e-05      11.7546      176.293 
0.000393549      9.86696      37.6713 
-4.91233e-05      7.94278     -1.51503 
0.000442822      11.0937     -106.981 
-0.000196684      13.4406      146.594 
-0.000246858      8.23744      2.43517 
0.000542730      8.81581      21.0048 
0.000787520      13.7510      149.351 
4.91127e-05      6.83130     -6.30314 
9.82422e-05      10.3819     -104.960 
0.000245884      3.25025      110.721 
-4.91181e-05      13.0779     -144.523 
-0.000689544      13.0376      155.145 
4.90915e-05      8.38521      171.358 
-0.000196728      7.93278     -1.51694 
4.91385e-05      11.8657     -82.3479 
-0.000987249      8.35877      10.8260 
-0.000295378      8.74886     -101.605 
-4.91525e-05      8.95456      35.5005 
-0.000845262      7.84454     -117.153 
0.000147712      13.1584     -55.6216 
-4.92188e-05      4.17005      61.6527 
-0.000394206      13.6405     -152.965 
0.000296094      16.6693     -133.955 
-0.000799208      5.15819     -52.6414 
-9.84386e-05      13.0243      155.166 
-0.000196987      12.2088     -73.7323 
-0.000197056      8.48182     -136.672 
-0.000148992      12.2410     -94.0756 
4.92278e-05      11.5906     -93.4129 
4.92084e-05      9.59926     -67.5225 
4.92226e-05      13.9040     -55.8756 
4.92149e-05      8.08231      79.2323 
9.86220e-05      6.62457     -85.0640 
4.92116e-05      10.2263      128.887 
-0.000897597      9.84833     -38.5690 
-0.000345659      11.6720     -108.637 
-0.000345654      14.2930      147.022 
-9.87283e-05      7.75121     -107.804 
0.000148145      9.87811     -53.3969 
-9.85677e-05      11.7502      179.707 
9.86819e-05      10.3793     -104.907 
-0.000147781      7.92278     -1.51885 
-0.000147846      8.58630      17.6964 
-0.000197319      15.1215     -139.801 
9.86531e-05      13.8652      145.817 
0.000752559      10.2201      128.844 
-0.00154722      14.2846     -123.000 
4.92467e-05      5.70938     -150.517 
0.000396966      12.4379      139.728 
9.85475e-05      3.24672      110.556 
0.00347130      8.32741     -8.77232 
-0.000297984      13.0674     -144.437 
9.86928e-05      11.6005     -93.4100 
-0.000346215      8.74685     -101.541 
-0.000197714      13.4489      146.617 
4.92709e-05      7.57409     -78.4230 
-0.00248274      8.57280     -16.2575 
-9.87183e-05      12.2116     -73.6872 
0.00169777      13.7596      149.372 
0.000746573      11.1158     -81.7241 
9.88561e-05      9.61616     -67.4351 
-0.000698514      7.15275      94.5707 
-0.000298796      8.47455     -136.626 
0.000198080      12.0325      161.490 
9.88561e-05      11.8643     -82.3958 
0.000446352      9.85905      37.7068 
-4.93686e-05      13.0755     -144.462 
-0.000297562      8.41418     -62.1558 
0.000346716      11.0908     -106.932 
-0.000846574      15.1227     -139.855 
-9.88048e-05      8.62792      17.4689 
0.000148384      3.26314      110.823 
-9.87849e-05      7.90253     -1.45022 
-0.000197953      11.0464      170.043 
-4.94150e-05      12.2212     -73.7004 
-9.89217e-05      6.45434      31.8925 
0.000448466      12.9054     -115.274 
0.000954503      9.29715     -41.2497 
-0.000762061      5.33520      163.671 
4.94704e-05      5.65545     -159.290 
4.94697e-05      13.8984     -55.9097 
-9.89583e-05      13.6538     -153.041 
-9.91349e-05      8.60991      115.672 
-0.000148955      8.78936     -45.1383 
4.94373e-05      6.85228     -6.36789 
-9.90189e-05      8.33361      99.8805 
-0.000348061      8.75228      51.8207 
-0.000397231      13.0153      155.148 
-0.000149049      9.86854     -34.2215 
-0.000690317      13.9875      151.053 
-0.000447423      8.61186      17.5723 
-0.000148644      7.91279     -1.52077 
-0.000298470      12.2240     -73.6554 
0.000149036      8.13001      89.9295 
4.95489e-05      13.8431      145.805 
-0.000748302      13.7027     -153.285 
0.000199598      13.1445     -55.6329 
4.95235e-05      12.7809     -138.013 
-0.000349182      3.61134     -61.3769 
0.000399045      3.25960      110.659 
-4.96465e-05      4.62398     -70.5462 
-0.00159548      11.6752     -108.683 
-0.00100991      11.0365      170.034 
0.000552193      13.8514      145.828 
-0.000198979      7.89253     -1.45205 
0.000349980      12.4809     -165.997 
-0.000249461      14.3013      147.043 
0.000200449      12.7802     -137.949 
-0.000551416      8.75466     -101.464 
0.000406650      8.42027     -24.0385 
0.000452026      11.5156     -47.4987 
-0.000603125      8.37654      10.7331 
-9.95880e-05      8.33190      99.8128 
0.000451780      15.8691     -137.554 
9.98209e-05      11.6011     -93.4593 
-0.000400314      13.0285      155.127 
-4.97573e-05      13.4573      146.641 
0.000201261      5.65899     -159.195 
4.97768e-05      9.89807     -53.3385 
4.97933e-05      13.9122     -55.8987 
-4.98040e-05      2.90520     -73.8108 
0.000400354      11.0879     -106.882 
0.000503091      8.81940      21.0655 
0.00105395      11.6201     -174.172 
-0.000200696      8.61424      115.732 
0.000661037      16.6762     -133.980 
-0.000149819      8.31505     -40.3173 
-4.98535e-05      7.74784     -107.967 
-0.000250126      7.90279     -1.52269 
-0.000817894      5.17828     -52.5326 
4.99592e-05      12.0293      161.535 
-0.000150135      2.90243     -74.0004 
-0.000201354      13.4434      146.653 
0.000251826      9.90404     -53.2921 
-0.000150713      8.36859      10.8131 
-0.000150154      8.33837      99.6657 
-0.000353459      4.16941      61.9598 
4.99315e-05      4.92410     -127.242 
-0.00121003      8.62139      17.5523 
0.000402563      9.85727      37.7883 
-0.000252036      8.40952     -62.2161 
-0.000468579      8.23702      2.36567 
0.000201410      12.0388      161.550 
-0.000150586      8.75681      51.6774 
 0.0116059      13.6937      153.360 
-0.000201225      12.2364     -73.6237 
-0.000252196      9.85465     -34.2061 
-0.000100960      6.45756      31.7703 
-5.01383e-05      8.78231     -45.1845 
5.01718e-05      12.4455      139.758 
-0.000711607      15.1303     -139.879 
-0.000455300      13.0062      155.129 
-0.000457213      8.32914     -40.3252 
-0.000203568      11.3209      44.7495 
5.01891e-05      5.67020      3.43766 
0.000559392      13.2897     -154.650 
-0.000505866      7.89279     -1.52462 
-5.02597e-05      8.33670      99.5979 
-0.00675071      13.7072     -153.248 
-0.000100699      2.91204     -74.0546 
-0.000254569      13.0593     -144.411 
0.000151202      3.27605      110.925 
0.000151525      10.9548     -96.2362 
0.000356454      12.4315      139.764 
-5.03241e-05      8.34325      99.4510 
0.000665052      11.1172     -81.6731 
5.03516e-05      8.49753     -17.8166 
-0.000100869      14.3097      147.065 
-5.04104e-05      8.74611      51.8722 
-0.000202895      3.61614     -61.2378 
5.03913e-05      8.13000      90.0000 
0.000152839      6.61460     -85.0565 
0.00138843      11.6101     -174.167 
0.000560022      11.0783     -106.897 
5.04487e-05      9.64231     -67.3710 
-0.000151628      8.34161      99.3833 
0.000254119      12.9092     -115.414 
-0.000570009      9.26717      117.367 
-0.000356288      11.7249     -177.116 
0.000360062      12.4712     -165.986 
0.000152075      10.7209      167.831 
-0.000151990      8.75062      51.7288 
-0.000418979      11.3138      44.7851 
5.05353e-05      6.86333     -6.44160 
-5.06104e-05      7.84434     -116.990 
-0.000410329      2.90931     -74.2440 
 0.0108068      13.5228     -52.5115 
0.00212607      7.57003     -22.7712 
0.000203991      3.27249      110.761 
5.06561e-05      12.2459      178.222 
-0.000154430      10.2027      170.750 
0.000152527      12.4639     -165.930 
-0.000411787      7.84889     -117.055 
5.06637e-05      11.6017     -93.5086 
0.00474789      13.7682      149.393 
0.000306341      9.84937      37.8240 
-0.000101757      8.33999      99.3155 
-0.000153225      7.15355      94.6506 
-5.07519e-05      8.76112     -45.2312 
-0.000203719      14.2791     -122.967 
-0.000360349      8.76248     -101.387 
0.000101830      12.0356      161.595 
-0.000360564      8.40486     -62.2764 
5.08985e-05      11.8842     -82.4085 
-0.000513251      12.7039     -160.838 
0.00764725      10.5217     -39.0595 
0.000102442      4.93016     -127.335 
-0.00280421      8.37841      10.8003 
-0.000204873      9.84903     -34.1580 
0.00111384      11.4947     -47.5385 
0.000310312      13.8375      145.839 
-0.000257923      8.76140      51.5342 
-0.000257164      9.84051     -38.6053 
-0.000683868      13.0195      155.108 
0.000525388      10.7230      167.778 
0.000630030      8.82300      21.1261 
-0.000102465      14.3181      147.087 
0.000103007      12.7728     -137.919 
-0.000363310      7.77692     -105.055 
-0.000365597      11.7302      179.707 
-5.11552e-05      8.33837      99.2477 
-0.000205441      14.2875     -122.945 
-0.000309907      7.88280     -1.52656 
0.000258645      12.0451      161.610 
5.12020e-05      9.65924     -67.2843 
0.00233113      12.2456      178.269 
0.000102862      9.92402     -53.2340 
-0.000366904      9.85457     -38.6144 
-0.000206558      1.17745     -69.1022 
-0.000102867      8.33677      99.1799 
5.13495e-05      15.8765     -137.578 
-0.000265350      5.15213     -52.7298 
-0.000639087      11.7054     -177.062 
-0.000314407      4.17356      62.1455 
0.000207296      7.15003     -77.4799 
0.000104054      5.66255     -159.101 
0.000208637      12.9131     -115.553 
0.000575369      12.2150      170.291 
0.00300440      9.20814      26.6485 
-0.00101121      14.2821     -122.911 
-0.000418455      15.1316     -139.933 
-5.17098e-05      3.62097     -61.0991 
0.000208177      9.28304     -41.2440 
-5.17086e-05      13.4518      146.676 
-0.000103806      8.33518      99.1120 
0.000104192      4.93623     -127.427 
-0.000208212      12.7133     -160.852 
-0.00156372      8.63093      17.5322 
0.00370197      8.32589     -8.70431 
0.000156683      9.84761      37.9056 
5.18410e-05      11.0850     -106.833 
0.000373616      8.41114     -24.0662 
-0.000421816      1.18106     -68.6490 
0.000316451      12.1371      148.785 
-5.20712e-05      12.6977     -160.780 
5.20257e-05      9.91002     -53.2457 
0.000263327      11.0821     -106.783 
0.000104330      13.2945     -154.707 
-0.000104883      9.83514     -34.1425 
-0.000104747      8.32152     -40.3698 
-0.000325094      8.76604      51.3912 
-0.000453755      11.6784     -108.730 
-0.000104795      8.23015      19.6679 
0.000105190      11.4358      133.973 
-5.22263e-05      7.16433      94.7238 
-0.000159135      13.0488     -144.325 
-5.22564e-05      14.3127      147.120 
-0.000104649      10.2718     -95.7550 
-0.00123416      12.7072     -160.795 
0.000812668      11.1187     -81.6221 
-5.23687e-05      3.63941     -60.8995 
-0.000104865      7.90306     -1.59517 
0.000318263      7.15220     -77.4017 
0.00119049      16.6829     -134.053 
0.000158069      12.0420      161.655 
5.24314e-05      11.8742     -82.4022 
-5.25169e-05      8.73291     -45.3248 
0.000158563      12.4785     -166.042 
-5.25021e-05      8.33204      98.9762 
0.000106248      3.28539      110.862 
0.000375299      11.7369     -136.830 
-0.000265537      8.40021     -62.3368 
-0.000602504      7.85344     -117.120 
0.000268302      5.21400     -143.108 
-0.000766613      5.34762      163.598 
-0.000159250      11.7892      152.848 
-5.26428e-05      12.8546      155.209 
-0.000425956      10.2807     -95.6940 
-0.00754426      8.57560     -16.3217 
0.00112993      11.5912     -174.107 
0.00111198      13.3035     -154.726 
0.000373103      9.27552     -41.2847 
-5.26830e-05      5.17220     -52.6205 
-0.000160554      2.92166     -74.1085 
-5.27369e-05      13.2380     -145.121 
-0.000160969      7.89307     -1.59719 
-0.000323334      11.0580      170.001 
-5.27407e-05      8.33049      98.9083 
0.000106102      4.94050     -127.682 
0.00136302      12.2453      178.315 
5.28097e-05      9.67620     -67.1979 
-5.28460e-05      8.77228      51.3402 
-0.000438434      12.8413      155.231 
-5.28705e-05      14.3211      147.142 
-0.00168716      11.5825     -44.7202 
-0.000437942      8.22411      19.7569 
0.000428599      12.2462      170.268 
-0.000159911      15.1392     -139.957 
-0.00161085      13.0327      155.087 
-5.31154e-05      8.77031     -101.310 
5.31083e-05      9.83972      37.9414 
0.000270955      16.2048     -136.425 
0.000432924      12.0515      161.670 
-0.000160959      15.5104     -140.048 
-0.000107029      12.8323      155.212 
-5.33092e-05      7.98423     -1.86612 
-5.33584e-05      8.32741      98.7723 
-0.000443680      3.64428     -60.7621 
0.000107659      9.83799      38.0231 
-5.35448e-05      8.33562     -40.3776 
0.000606779      11.0792     -106.734 
-0.000550814      7.99456     -1.93542 
0.000107608      12.4858     -166.097 
0.000108664      12.9170     -115.692 
-0.000107947      8.32289      98.5682 
0.000163744      4.94661     -127.773 
-5.37498e-05      14.3295      147.164 
5.37634e-05      6.61636     -84.8840 
-0.000724727      1.16456     -69.3864 
-0.00121649      4.51426     -111.849 
-0.000665793      15.1404     -140.010 
-0.000391415      11.8026      152.827 
-0.000503296      9.84676     -38.6507 
0.000441797      7.15439     -77.3235 
-5.39704e-05      8.32439      98.6363 
0.000274598      9.26141     -41.2790 
-0.000218016      9.82125     -34.1269 
0.000163351      12.1233      148.801 
-0.000285269      9.27177      117.422 
-0.00101838      10.2797     -95.6385 
-0.000163394      8.39558     -62.3972 
0.000164868      15.8839     -137.603 
-0.000219062      8.23661      2.29617 
-0.000164346      4.17775      62.3309 
0.000330132      12.2738     -175.748 
5.41643e-05      12.4931     -166.153 
0.000605833      12.2676      170.238 
-0.000562180      15.5181     -140.072 
-5.44532e-05      7.97424     -1.86846 
0.000388817      11.7364     -136.761 
5.45856e-05      5.14992      82.8612 
5.46538e-05      11.4427      134.009 
-0.000983660      7.73217     -19.0208 
0.000336485      9.83012      38.0590 
-5.47240e-05      8.31993      98.4320 
-5.46975e-05      8.32800     -40.4222 
-5.48485e-05      12.8190      155.234 
-0.000224775      10.9669     -52.4091 
0.000166985      10.7133      167.767 
5.49853e-05      12.5101     -166.219 
0.00228271      11.5813     -174.102 
-5.50373e-05      8.69994      159.899 
-5.50049e-05      14.3379      147.186 
-0.000222045      8.39095     -62.4577 
-0.000167340      8.31702      98.2957 
-5.51196e-05      8.70472     -45.4189 
0.00159340      8.38793     -11.1358 
-0.000563905      14.2850     -122.856 
-0.00125388      12.7166     -160.810 
0.000167375      12.5174     -166.275 
-5.53703e-05      13.2323     -145.157 
-0.000395732      9.81565     -34.0786 
0.000830020      8.82661      21.1866 
-0.000167633      11.3100      169.763 
0.000337206      12.0483      161.715 
0.000111697      4.82959     -122.571 
0.000341973      12.1319      148.826 
5.55783e-05      12.2775      170.246 
-5.56523e-05      10.9870     -52.3583 
0.000340902      8.16870     -113.521 
0.000922185      11.5014     -47.5018 
-0.000168961      8.31416      98.1593 
0.000112860      12.9211     -115.831 
0.000230975      16.2052     -136.475 
0.000284115      8.39793     -24.0318 
-0.000287449      7.74442     -108.365 
-0.000927061      12.9102     -159.979 
5.59977e-05      3.31483      111.224 
-0.000409535      11.7154     -177.064 
-5.60698e-05      12.9247      156.470 
0.00579739      12.2989      170.216 
0.000638125      12.2745     -175.702 
0.000942621      11.4806     -47.5417 
-0.000344388      8.38633     -62.5183 
0.000651023      9.25390     -41.3199 
0.000176024      11.1201     -81.5711 
-5.64657e-05      8.31559      98.2275 
5.63993e-05      15.8845     -137.654 
5.64075e-05      12.5248     -166.330 
-0.000994631      7.98457     -1.93784 
-0.000287240      11.3002      169.754 
-0.000525282      12.9339      156.487 
0.000114860      4.95275     -127.865 
0.000115571      5.16443     -151.301 
5.66820e-05      8.24637      52.5882 
0.00141097      11.7437     -136.794 
0.000584833      11.1073     -81.6656 
0.000172028      12.5419     -166.396 
-0.00362554      4.51615     -111.566 
-0.000115934      8.77073      51.2484 
-0.00141570      13.8824     -151.847 
5.71181e-05      5.21601     -143.262 
0.00103467      7.58312     -22.8117 
5.74343e-05      8.23843      52.5459 
0.000176753      4.83198     -122.835 
0.000914205      12.0578      161.730 
0.000115602      7.15659     -77.2454 
-0.000174100      8.31275      98.0911 
-0.000233844      7.85800     -117.185 
-0.00146452      14.2905     -122.889 
0.000537754      11.0763     -106.684 
0.000233214      8.23235      52.6011 
0.000421152      9.82225      38.0950 
-0.000293772      9.81005     -34.0302 
0.000234264      12.5492     -166.451 
-0.000794878      15.1494     -140.088 
-0.000428973      8.23352      19.7334 
-0.000234699      15.9304     -140.093 
0.000480518      8.16353     -113.613 
0.000176783      13.3083     -154.783 
-0.000622478      5.33802      163.568 
-0.000238044      9.83895     -38.6871 
-0.000428643      13.9924      151.017 
-0.000310583      3.64918     -60.6251 
0.000117824      8.40201     -24.0940 
-0.000310820      10.9407     -52.5017 
-0.00201164      15.5194     -140.124 
-0.000425593      1.14826     -70.1448 
-5.88545e-05      8.00490     -2.00453 
-0.000298981      11.2689      169.777 
-5.88879e-05      5.13207     -52.8398 
-0.00109006      12.7105     -160.752 
-0.00263230      12.4274     -170.037 
0.000368194      5.20800     -143.196 
-0.000118592      8.31135      98.0229 
-0.0101706      15.9227     -140.070 
-0.000485603      8.38172     -62.5789 
0.00173397      13.3173     -154.801 
0.000424433      12.5664     -166.517 
-0.000492734      7.86234     -117.087 
0.000366304      8.22441      52.5588 
-0.00157381      8.38029      10.8675 
-0.000377384      5.13811     -52.7510 
0.00281829      8.32439     -8.63627 
-0.000241672      9.80445     -33.9818 
0.000182152      12.1404      148.850 
0.000244012      8.39288     -24.1219 
-0.000500893      8.30996      97.9546 
-0.000964706      10.2877     -95.5222 
0.000123351      14.7440      146.116 
-0.000121248      12.9008     -159.964 
-6.03040e-05      11.3138      44.7135 
-6.05001e-05      1.15169     -69.6769 
0.00130734      12.2753     -175.655 
0.00163667      11.1088     -81.6146 
-0.000185786      11.6817     -108.776 
-0.000185621      7.74758     -108.435 
6.07103e-05      7.14463     -77.3059 
-0.00106808      7.99491     -2.00704 
0.000123865      12.3203      170.186 
-0.0163727      8.71278     -19.1628 
-0.000248775      8.00090     -179.141 
6.11387e-05      4.95889     -127.956 
-0.000381772      12.9430      156.505 
-0.000713451      12.9162     -160.036 
-0.000513124      11.2376      169.800 
-0.000123120      9.79057     -33.9660 
-6.15860e-05      4.51983     -111.684 
-6.16662e-05      12.9299      156.528 
0.000124323      7.56081     -22.8006 
0.00121469      12.5738     -166.572 
0.000905237      4.82656     -122.735 
-0.000377429      9.79887     -33.9333 
-0.000125286      13.0104      155.090 
-6.21689e-05      8.77548      51.1057 
-0.000257258      9.84520     -38.7325 
-0.00190245      12.7199     -160.767 
0.000320753      8.15953     -113.549 
0.000126888      11.0830     -106.620 
6.26429e-05      16.2056     -136.525 
0.000332660      12.1267      148.866 
0.000190591      8.21833      52.6142 
0.000324027      9.24639     -41.3608 
-0.000254086      9.84251     -166.486 
-0.000470283      7.72272     -19.0450 
0.00294497      4.96505     -128.047 
-0.000391454      12.3416     -172.645 
0.000323516      8.38376     -24.1498 
-0.000593444      8.37712     -62.6397 
0.000128058      16.6760     -134.028 
-0.000454276      1.13547     -70.4480 
0.000516049      11.5624     -174.043 
0.000816471      8.83023      21.2471 
0.000335739      5.14382      82.5158 
0.00185509      11.0802     -106.570 
-6.40074e-05      9.78499     -33.9174 
-6.40685e-05      4.63276     -71.3695 
-0.000402271      7.85779     -117.022 
-0.000259883      12.9971      155.111 
-0.000723564      9.79329     -33.8848 
0.000132639      4.81453      58.1586 
-0.000197247      10.9206     -52.5530 
-0.00253731      12.2967     -174.493 
-0.000130102      7.99106     -179.068 
-0.000662715      9.85962     -166.570 
0.000130420      9.82056      38.1769 
-0.000201691      7.74445     -108.599 
6.48007e-05      8.21647      52.5164 
0.000405355      5.21004     -143.350 
0.000334268      5.15085     -151.345 
-0.00102378      14.2934     -122.834 
-0.000270859      12.9068     -160.021 
-0.00115504      8.01525     -2.07347 
0.00181661      8.21039      52.5718 
0.00118993      11.4873     -47.5049 
-0.00259961      15.1506     -140.141 
-6.58600e-05      7.31314      96.9112 
0.000549781      7.57390     -22.8410 
0.000892546      11.5724     -174.048 
-0.00669624      13.7117     -153.211 
0.00144114      1.53734     -162.979 
-0.000201724      13.9972      150.981 
-0.000140853      12.8637      155.228 
-0.000345775      12.9391      156.546 
0.00356212      12.5812     -166.626 
-0.00187204      13.8871     -151.811 
0.000202995      11.7314     -137.868 
-6.70188e-05      16.1648     -134.649 
-0.000550972      1.11946     -71.2414 
 0.0144220      10.4999     -39.0859 
-6.69606e-05      8.30721      97.8180 
-0.000135773      12.8770      155.206 
0.000275206      8.37463     -24.1778 
-0.000424525      16.1577     -134.624 
-0.000279474      8.70623     -109.038 
-0.000345783      4.26564     -149.889 
0.00117593      5.07134      21.7595 
6.79781e-05      9.26050     -41.3664 
-0.000274151      9.77941     -33.8688 
-6.80446e-05      7.32427      96.9795 
6.81975e-05      8.15554     -113.485 
6.82071e-05      11.7433     -136.725 
-0.000207796      8.38218      10.9346 
0.00930901      8.32289     -8.56821 
-0.000493314      9.86704     -166.640 
-0.000494997      12.3851      171.222 
-6.88675e-05      5.14417     -52.6623 
-6.88894e-05      5.32843      163.538 
-0.000364010      12.3428     -172.599 
-0.000208169      4.52179     -111.401 
0.000966709      11.7240     -137.835 
-0.00122089      12.7294     -160.782 
-6.93746e-05      12.9838      155.132 
6.95130e-05      8.16074     -113.392 
-6.94978e-05      3.65409     -60.4885 
-0.00116409      9.78772     -33.8362 
-0.000214639      7.32307      96.9018 
-6.98663e-05      14.0021      150.945 
0.00138861      3.87134      13.1388 
-0.00219466      4.51815     -111.283 
-0.000946632      9.54807      126.654 
-0.00204740      8.03560     -2.13957 
0.000604817      5.20202     -143.284 
0.00254921      13.3312     -154.877 
-7.08624e-05      5.16426     -52.5532 
-0.000144003      3.69153     -123.733 
-0.000601413      12.5994     -49.2162 
0.000144679      8.15678     -113.328 
-0.00210181      14.0847     -54.2448 
-0.000294350      10.2958     -95.4060 
-7.14295e-05      2.49552     -63.8457 
0.00105797      11.1102     -81.5636 
0.000675359      8.20366      7.14234 
7.19107e-05      11.7429     -136.656 
-0.000294639      1.10680     -71.5651 
0.00144583      12.2760     -175.608 
0.000455085      4.73088     -164.554 
0.000147613      9.25300     -41.4073 
0.00106460      11.5535     -173.988 
-0.000147128      2.49994     -63.6399 
-0.000543568      4.25699     -149.821 
-0.000371020      10.0222     -167.378 
-0.000299243      7.74764     -108.669 
-0.00479294      12.3835      171.268 
-0.00715743      8.57842     -16.3858 
-0.000533585      14.2910     -122.745 
-0.00393998      12.4257     -170.083 
-0.000460521      9.87446     -166.710 
7.42322e-05      5.13656      82.2800 
-0.000150842      3.80217      105.718 
-0.000226954      5.44340      154.424 
-7.46372e-05      8.38600     -62.6711 
-0.000560503      3.69709     -123.862 
0.00104426      11.4941     -47.4681 
-0.000928250      12.7450     -160.854 
7.50218e-05      8.36551     -24.2059 
0.000154279      12.1130      148.882 
-0.000311724      7.32187      96.8241 
7.53021e-05      11.7425     -136.587 
0.00131158      8.83386      21.3076 
0.000152595      7.61003      114.039 
-0.000153993      2.50440     -63.4350 
-0.000781744      9.54210      126.606 
-7.64714e-05      12.5981      164.673 
-0.00103149      9.78215     -33.7875 
-0.000392862      10.0124     -167.366 
-0.000156700      8.71243     -108.955 
0.000157232      8.15282     -113.263 
0.000547482      3.88108      13.1053 
-0.000155374      1.11000     -71.0754 
-7.71051e-05      12.9482      156.563 
0.000317922      12.3301      170.194 
-0.000966488      12.5858      164.705 
-0.000838453      12.3441     -172.553 
-7.74246e-05      12.9222     -160.093 
-7.74093e-05      5.30642      163.580 
0.000491117      10.6426     -44.3528 
0.000236691      7.60596      113.970 
7.76921e-05      9.25962     -41.4537 
-0.00354872      13.8918     -151.775 
-0.000238569      7.74138     -108.763 
-0.00161048      15.5117     -140.100 
0.00269348      12.3087      170.224 
 0.0138958      12.5789     -166.671 
0.00888538      10.4780     -39.1124 
-7.87248e-05      10.2949     -95.3506 
-0.000494202      5.43438      154.378 
-0.000163740      7.96494      153.210 
-7.90713e-05      8.64141     -45.6564 
0.000161961      11.7348     -136.485 
0.000922762      8.21234      7.06444 
0.00161818      3.86390      13.3169 
-7.96893e-05      3.79947      105.573 
-0.000416620      1.10055     -70.9065 
-0.00393828      12.2977     -174.447 
-0.000755391      14.2940     -122.689 
-0.000500609      2.50888     -63.2307 
0.000748253      11.1117     -81.5126 
-0.000583554      12.7544     -160.869 
-8.02946e-05      9.53732     -158.277 
-0.00104521      12.5918     -49.1865 
-0.000607682      10.3039     -95.2901 
-0.000250449      7.85325     -116.957 
0.000674290      11.5446     -173.934 
-0.00393830      9.52811      126.593 
-0.000412556      5.69351      109.708 
-0.000769283      9.52803     -158.254 
0.000975444      5.06206      21.8014 
0.000512128      4.72392     -164.404 
0.000419762      7.61510      113.940 
-0.000588051      12.8547     -161.354 
-0.000765793      10.0027     -167.353 
-0.000256848      8.05597     -2.20533 
0.000775419      1.55361     -163.548 
-0.000500834      12.9421     -52.8822 
-0.00165064      8.04597     -2.20807 
0.000429378      5.19401     -143.218 
-0.000718807      6.28326      38.0189 
-0.000348110      12.9574      156.581 
8.26636e-05      10.9777     -157.336 
-0.000169204      12.3915     -158.010 
-0.00159212      4.51453     -111.165 
-0.000166561      9.79047     -33.7550 
0.000546288      4.82116     -122.635 
-0.000262964      7.33180      96.8148 
-8.41444e-05      5.21061     -52.2504 
-0.000958352      9.77659     -33.7388 
-0.00150559      12.5735      164.737 
-0.00120769      7.74460     -108.833 
0.00117401      10.9869     -157.356 
-0.000345432      8.28402     -78.9342 
8.50244e-05      9.22968     -41.6181 
-0.00310195      5.68409      109.742 
0.000905503      11.1003     -81.5560 
-0.000812219      12.9281     -52.8908 
-0.000177997      8.71542     -108.809 
8.71480e-05      11.7345     -136.416 
0.000464932      2.81114     -48.0279 
-0.000362355      3.70267     -123.990 
0.000268615      12.9279     -140.115 
-0.000632864      12.8642     -161.368 
0.000550203      7.61105      113.871 
-0.000948491      5.42537      154.332 
-8.84120e-05      16.1507     -134.599 
-0.000274632      12.3822     -157.992 
-0.000182880      5.23077     -52.1442 
8.86402e-05      10.6355     -44.3905 
-0.00179787      12.3454     -172.507 
-0.000277580      1.09110     -70.7347 
-0.000555695      12.7639     -160.884 
8.93096e-05      1.28445     -155.630 
0.000739340      8.22105      6.98670 
0.000840068      8.83749      21.3680 
-0.000742304      8.27039     -79.0569 
0.000183078      5.20408     -143.438 
0.000274765      11.5546     -173.939 
-8.98131e-05      2.51340     -63.0272 
-8.99635e-05      14.2886     -122.656 
0.00318275      12.3186      170.232 
-0.000750173      14.0264      150.767 
-0.00412029      8.49370      14.3144 
-0.00126437      9.99293     -167.341 
9.04469e-05      11.7308     -137.799 
0.000276153      1.27534     -155.444 
9.07267e-05      9.19981     -41.7835 
-0.00168166      14.2917     -122.600 
0.000597154      4.71429     -164.372 
-0.000274740      9.76272     -33.7226 
0.00244832      3.87363      13.2829 
0.000705093      7.32364      139.153 
-0.000978922      9.51874     -158.232 
-0.000492494      14.0766     -54.2210 
0.000186034      10.6568     -44.3537 
0.000187431      11.5008     -47.4314 
0.000372255      10.6222      40.2269 
-0.000394044      5.28724      163.519 
-0.00176130      4.24835     -149.753 
-0.00218468      8.06635     -2.27358 
9.26277e-05      12.3400      170.202 
-0.000857512      9.77104     -33.6901 
-0.000725870      1.55081     -128.718 
9.32220e-05      9.18491     -41.8667 
9.34657e-05      3.66677     -30.4814 
-0.00248370      12.5612      164.769 
0.00157301      10.6299      40.1920 
0.000590346      1.57003     -164.105 
-0.00140086      12.9141     -52.8994 
-0.000192737      7.33062      96.7372 
0.00117445      5.19605     -143.373 
-0.000586691      12.8737     -161.382 
9.52477e-05      8.14494     -113.134 
0.00165945      3.68046     -30.5366 
-0.00494773      13.8965     -151.738 
-9.57814e-05      7.84873     -116.892 
0.00218905      11.1018     -81.5050 
9.64397e-05      1.26625     -155.256 
0.000595889      8.22976      6.90913 
-0.000412274      5.25095     -52.0389 
-0.000847390      4.51093     -111.047 
-0.00541683      14.0313      150.731 
-0.00205849      13.7162     -153.173 
-0.00159256      8.26849     -79.1249 
-9.77207e-05      12.9666      156.598 
9.77720e-05      9.18414     -41.9548 
-9.79601e-05      3.70563     -124.333 
0.000959772      4.97122     -128.138 
0.000820478      8.84114      21.4283 
0.000301294      1.25718     -155.066 
0.000612762      7.05142     -6.92345 
-0.000601326      9.75718     -33.6738 
9.88152e-05      12.9292     -140.177 
-0.000734699      12.7733     -160.898 
0.000200882      9.17671     -41.9965 
-0.000861306      7.34173      96.8056 
-9.98517e-05      5.65488     -175.842 
-0.000207141      12.3675     -157.915 
-0.000666411      6.27370      38.2034 
0.000513319      13.7768      149.414 
0.000205619      10.6709     -44.3546 
-0.00214161      12.4239     -170.128 
-0.000100541      3.71128     -124.461 
-0.000100637      12.7577     -160.827 
0.000101320      12.0855      148.914 
-0.00415075      15.9150     -140.047 
-0.00141415      3.78107     -128.234 
-0.000522811      12.8832     -161.396 
0.000209483      5.76365     -135.914 
0.000209715      4.82358     -122.899 
0.000102641      10.6375      40.1573 
-0.000841522      9.76550     -33.6412 
0.00170127      12.2972      170.262 
0.00159301      10.6363      40.2332 
0.000526809      8.23849      6.83173 
0.000314018      1.57965     -164.204 
-0.000424260      5.41635      154.287 
0.000103763      9.16928     -42.0383 
0.000209666      2.08274     -173.660 
-0.000772490      15.5040     -140.076 
0.000104452      11.1192     -145.924 
-0.000323161      8.14710      2.39180 
-0.00280908      12.5490      164.801 
-0.00148790      10.0005     -167.409 
-0.00250989      12.9001     -52.9080 
0.00121193      13.7013      149.373 
0.000434935      2.05407     -173.290 
0.000216829      9.16186     -42.0802 
0.000106837      1.24812     -154.872 
0.000654757      13.8077      149.442 
-0.00127998      9.52433     -158.310 
0.000782349      7.06256     -6.99421 
0.00139903      1.59625     -164.745 
-0.00123959      8.08674     -2.33875 
0.00271586      8.32141     -8.50012 
-0.00795578      12.3534     -172.231 
-0.00100309      9.75164     -33.6249 
0.000789568      8.84480      21.4886 
-0.000559555      12.8927     -161.410 
0.000330835      8.24724      6.75448 
0.00510746      12.3070      170.270 
0.000109332      10.6922     -44.3179 
-0.000225853      6.28156      38.1470 
0.00312416      10.6440      40.1984 
-0.000352229      5.27765      163.488 
-0.000339263      6.21692     -46.2383 
0.000110810      11.1165     -145.852 
0.000225310      1.23907     -154.676 
-0.00106195      5.42971      154.237 
-0.000341516      15.1583     -140.165 
0.000227049      4.82902     -122.999 
0.000111792      5.75647     -135.845 
-0.00144011      6.92752     -83.2853 
0.00120417      2.04414     -173.257 
0.000596565      10.9962     -157.376 
-0.000822178      12.7828     -160.913 
0.000112638      13.5499     -151.430 
0.000343245      13.8300      149.448 
0.000227571      8.25600      6.67740 
0.000592398      1.24595     -108.726 
0.000230817      9.15444     -42.1221 
-0.00158286      5.69689      109.803 
0.000234446      3.18818     -83.8781 
0.000115040      13.8648     -56.1151 
0.000850888      13.5587     -151.450 
-0.000239417      7.98279      153.274 
-0.00146406      8.58125     -16.4498 
0.000852809      13.8386      149.469 
-0.00342599      13.9013     -151.702 
-0.00119303      9.75996     -33.5924 
0.000733936      5.45642      115.861 
0.000116104      8.26478      6.60049 
-0.000984517      3.78566     -128.565 
-0.000117044      5.63567     -175.726 
0.000720293      8.28238      6.44714 
-0.000479143      12.9021     -161.425 
0.000492861      4.70737     -164.222 
0.000242174      5.89604      143.344 
0.000607369      7.05263     -7.00410 
0.000988920      8.84847      21.5489 
-0.000616607      6.23106     -46.2355 
-0.000865302      8.26661     -79.1930 
0.000736420      3.90056      13.0387 
-0.000618979      7.34292      96.8831 
-0.00123723      8.09714     -2.40657 
0.000373146      4.83157     -123.262 
-0.000620913      15.1596     -140.219 
0.000247273      10.7064     -44.3188 
-0.000370964      8.13711      2.39474 
0.000244073      1.23004     -154.477 
0.000370934      13.8704     -56.0808 
-0.00211520      12.5586      164.813 
0.000245365      9.14702     -42.1641 
-0.000120929      12.3527     -157.837 
0.00213967      10.6516      40.1637 
-0.000249500      7.74784     -108.903 
-0.000374252      12.2987     -174.401 
-0.00100942      12.8861     -52.9167 
-0.000123690      15.4951     -140.000 
-0.000758100      9.74610     -33.5759 
-0.000505407      12.9116     -161.439 
0.000631756      8.28126      6.37839 
-0.000254048      12.7766     -160.856 
-0.000762219      15.9074     -140.024 
-0.000382396      9.99074     -167.397 
0.000254052      1.25228     -108.146 
0.000126251      5.19812     -143.527 
0.000255221      7.06378     -7.07471 
0.000126958      2.68412      152.003 
0.000127300      3.18713     -84.0569 
-0.000127315      5.42070      154.191 
0.000127933      8.43652      130.866 
0.000128320      11.0904     -81.5484 
0.000257580      12.3169      170.278 
0.000128667      1.60331     -165.184 
-0.000128608      4.25198     -149.938 
