! Center RA: 22 25 47.25929,  Dec: -04 57 01.39091 (2000.0)
! Established model.
! Flux (Jy) Radius (mas)  Theta (deg)  Major (mas)  Axial ratio   Phi (deg) T \
! Freq (Hz)     SpecIndex
  0.136711    0.0223607      153.435 
  0.152976    0.0141422      135.000 
 0.0651150    0.0282843      135.000 
 0.0160018    0.0707107      135.000 
0.00812624    0.0100000      180.000 
 0.0102149   0.00999997     -90.0000 
 0.0378448    0.0781025      140.194 
 0.0369816    0.0199999     -90.0000 
 0.0347632    0.0223606     -63.4349 
0.00936538    0.0860233      144.462 
0.00528373    0.0943398      147.995 
0.00339046     0.102956      150.945 
0.00165773    0.0583095      59.0363 
 0.0588826     0.120830      155.556 
0.00162269    0.0707107      45.0000 
0.00158998    0.0860233      35.5377 
0.00155910    0.0943398      32.0054 
 0.0732550     0.102956      29.0546 
0.00247099    0.0223606     -116.565 
0.00120171     0.101980     -168.690 
 0.0519992     0.111803     -169.695 
0.00113391    0.0538516     -21.8013 
0.00108437    0.0728011     -15.9453 
 0.0299097    0.0921954     -12.5288 
 0.0184877     0.151327      97.5946 
 0.0138064     0.261725      83.4181 
0.00705149     0.143178      102.095 
 0.0101896     0.260768      85.6013 
 0.0668108     0.141421      98.1301 
0.00667084     0.271662      83.6598 
 0.0204660     0.270740      85.7636 
 0.0160658     0.270185      87.8789 
 0.0165934     0.270000      90.0000 
 0.0128586     0.140357      94.0856 
0.00180583     0.270185      92.1211 
0.00572527     0.281603      73.4956 
0.000410442     0.270740      94.2364 
0.000591186     0.271662      96.3402 
0.000190718     0.272947      98.4270 
0.000549401     0.274591      100.491 
0.000527863     0.276586      102.529 
0.000498204     0.278927      104.534 
0.000472699     0.281603      106.504 
0.00302470     0.284605      108.435 
 0.0325959     0.414367      109.747 
0.00625592     0.427200      110.556 
0.00108184     0.465188      115.463 
 0.0167357     0.370000      108.925 
0.00499863     0.474236      114.944 
0.00800727     0.483322      114.444 
0.00173487     0.660681      129.472 
0.00628806     0.654370      128.797 
0.00388273     0.395601      106.144 
0.00135599     0.398497      107.526 
0.00674794     0.405216      105.751 
0.00643742     0.646607      129.352 
0.00126974     0.412311      104.036 
0.00292752     0.638905      129.920 
0.00141704     0.424264      98.1301 
0.00657634     0.373363      110.376 
0.00434119     0.434166      97.9435 
0.000254066     0.645368      130.601 
0.00106916     0.631269      130.503 
0.00346318     0.637809      131.186 
0.00301653     0.376962      111.801 
0.000563250     0.688186      125.538 
0.00439915     0.444072      97.7652 
0.000691588     0.682422      124.854 
0.00270107     0.644438      131.855 
0.000169815     0.676757      124.160 
3.89864e-05     0.671193      123.453 
0.000610721     0.655134      121.264 
0.000744220     0.651153      132.510 
 0.0134864      1.09458      84.7582 
0.00627417      1.22119      117.824 
0.00174232      1.79354      97.0458 
0.00173701     0.379473      108.435 
0.00189011      1.68244      109.081 
0.000480637      1.35074      109.911 
0.00158879      1.79234      96.7285 
0.00246967      1.35418      110.308 
0.000637969      1.80114      96.3753 
0.000826139      1.67299      109.193 
0.00908089      1.21655      117.408 
0.00191291      1.35768      110.704 
0.00101124      1.80006      96.0590 
0.00180563      1.67631      109.516 
0.00149581      1.80801      95.3953 
0.00122654      1.36125      111.098 
0.000695829      1.80710      95.0796 
0.000500533      1.81620      94.7374 
0.00286992      1.66688      109.631 
 0.0129609      1.81541      94.4229 
0.000889508      1.36488      111.490 
0.000901813      1.36858      111.879 
0.00110927     0.364006      110.924 
0.00106810     0.417852      111.038 
0.00316151      1.21198      116.988 
0.00241832      1.67027      109.954 
0.00659460      1.10454      84.8056 
0.000882327      1.37233      112.267 
0.00179678     0.358469      112.989 
0.000813923     0.421545      112.306 
0.00368896      1.22090      116.775 
0.000576492      1.37615      112.652 
0.00467547     0.425441      113.552 
0.000593074      1.38004      113.035 
0.00154624      1.67371      110.276 
0.000377707      1.38398      113.416 
0.00343652     0.353412      115.115 
0.000409336      1.38798      113.795 
0.00126047      1.67720      110.596 
0.00488320      1.21643      116.354 
0.000366827      1.39205      114.171 
0.000575356      1.39617      114.546 
0.00137599      1.10549      84.2894 
0.00222221      1.68074      110.915 
0.000737223      1.35558      111.644 
0.000845559      1.40528      114.376 
0.00161514      1.12009      82.3039 
0.000250396      1.35192      111.251 
0.000253131      1.11072      87.9362 
0.000203039      1.76556      94.5480 
5.73354e-05      1.33899      111.007 
1.77987e-05      1.20748      116.565 
0.00240211     0.566127      125.655 
0.00237928     0.572014      126.469 
0.00413269      1.68716      98.1781 
 0.0135872     0.347851      108.435 
0.00273043     0.552178      125.417 
0.000136145      1.68576      97.8417 
0.000268013      1.57166      108.550 
0.00276805     0.546443      124.563 
0.00265491      1.56850      108.204 
 0.0174445     0.422966      96.7890 
0.000708600     0.578014      127.266 
0.000751146      1.67726      98.2267 
0.000803825     0.584123      128.047 
0.00130278      1.56541      107.856 
0.00144459      1.67872      98.5645 
0.000704382     0.590339      128.811 
0.000685108     0.596657      129.560 
0.000791570      1.56237      107.507 
0.000770531      1.68024      98.9017 
0.000656022     0.603075      130.292 
0.000234895      1.55939      107.157 
0.000595342      1.68181      99.2383 
5.67040e-05      1.54690      106.912 
0.000375757      1.54402      106.557 
0.000619480     0.609590      131.009 
0.000199224      1.54120      106.201 
0.000288487      1.68345      99.5742 
0.000188978      1.53844      105.843 
0.000701466     0.616198      131.711 
0.000351580      1.67529      99.9684 
9.09433e-05      1.53574      105.484 
0.00394652      1.53310      105.124 
0.000430144      1.67705      100.305 
0.00225801     0.622896      132.397 
0.000408326      1.67887      100.641 
0.000326429      1.68074      100.976 
0.000212264      1.68268      101.310 
0.000203012      1.68467      101.643 
0.000546885      1.68671      101.976 
0.000618980      1.67693      102.047 
0.000118824      1.69358      93.7241 
1.61752e-05      1.62225      108.323 
0.00102190      1.60705      110.014 
0.000599424     0.558032      126.254 
0.00140424      1.59424      109.799 
0.000465382     0.564004      127.073 
0.00141393      1.59088      109.460 
0.000529696     0.570088      127.875 
0.000512625     0.576281      128.660 
0.000529062     0.582580      129.428 
0.000131283      1.65085      112.059 
0.000127465      1.57813      109.239 
0.000991304      1.66012      111.930 
8.17930e-05      1.57487      108.895 
0.00100864      1.69650      101.906 
0.000520219     0.588982      130.179 
3.96710e-05      1.56218      108.667 
0.000115539      1.55901      108.319 
0.000145616      1.55589      107.969 
6.96554e-05      1.55284      107.618 
3.40737e-05      1.54984      107.266 
0.000495021     0.595483      130.914 
0.000480672     0.602080      131.634 
0.000461002     0.608769      132.337 
0.000241499      1.66904      100.704 
0.000374298     0.615549      133.025 
0.000242790      1.67093      101.041 
0.00137057     0.349285      113.629 
0.000819077     0.411096      138.945 
0.00164315     0.345398      112.109 
0.000536775     0.418688      139.844 
0.000388952     0.426380      140.711 
0.00107936      1.35385      112.587 
0.000275794     0.351141      109.983 
0.000368983     0.434166      141.546 
0.000300104     0.442041      142.352 
0.00167293      1.24531      119.859 
0.000391986     0.450000      143.130 
0.00187816      1.35772      112.977 
0.00924013     0.499300      147.265 
0.00179433      1.24036      119.458 
0.00218162      1.36165      113.364 
0.00359124     0.344819      106.858 
0.00186190      1.23548      119.055 
0.00199387      1.36565      113.749 
0.000513860     0.338379      108.970 
0.00222362      1.43126      117.460 
0.00299332      1.23065      118.648 
0.00573725     0.342053      105.255 
0.00147175     0.335261      107.354 
0.00420641     0.504777      146.310 
0.00304745     0.332415      105.709 
0.000298198      1.34852      113.143 
0.000569712      1.22674      119.281 
7.90174e-05      1.22589      118.237 
0.000107366      1.34462      112.751 
0.000439040     0.388973      136.042 
0.000745208     0.396232      137.045 
0.000586544     0.403609      138.013 
0.000402515     0.351710      104.826 
0.000166260      1.36059      114.305 
0.000362040      1.36473      114.687 
0.00196672      1.40471      118.024 
0.000123798      1.25399      119.632 
0.000443366      1.24908      119.233 
0.000501957      1.24169      120.489 
0.00141771      1.77508      120.466 
0.00170992      1.19633      141.789 
0.00505514     0.440000      90.0000 
0.00113763      1.78017      120.743 
0.00304612     0.820244      135.000 
0.000233007     0.524786      120.964 
0.00110071      1.77674      121.185 
0.000583407     0.530000      121.891 
0.000885302     0.535350      122.800 
0.00197076     0.344819      119.539 
0.00102476      1.78194      121.460 
0.00116814      1.18849      141.491 
0.000838008      1.78718      121.734 
0.00241839     0.540833      123.690 
0.00389456     0.450000      90.0000 
0.00506054      1.68253      114.585 
0.000154343      1.79246      122.005 
0.00138093      1.18229      141.870 
0.000199021      1.79778      122.276 
0.00255499      1.81221      109.335 
0.00164723     0.382884      139.236 
0.000255248      1.80314      122.544 
9.38384e-05     0.375367      138.240 
0.000914136      1.80854      122.811 
0.00877488      1.81397      123.077 
0.000418843     0.341321      121.827 
0.00420352      1.67344      114.727 
0.00302055     0.827345      135.490 
0.00179329      1.17444      141.569 
0.00209504     0.336155      120.379 
0.000727894     0.384187      141.340 
0.00113301     0.460000      90.0000 
0.000561140     0.820366      135.988 
0.00145418      1.16662      141.263 
0.00265120      1.80560      123.250 
0.000726252     0.430000      90.0000 
0.000384479     0.382099      137.121 
0.000988137      1.18068      141.189 
0.000102137      1.17290      140.882 
0.000255533      1.81554      109.633 
0.00139262      1.15884      140.954 
0.00130069     0.392046      142.253 
0.00653549     0.339559      103.627 
0.000507919     0.390513      140.194 
0.000442455     0.398246      141.115 
0.00281382     0.400000      143.130 
0.000976655      1.16516      140.572 
0.00141343      1.82236      110.225 
0.00134794     0.834506      135.971 
0.00192691     0.337343      101.976 
0.00197173      1.24459      134.349 
0.000288002      1.47340      121.964 
0.00154059      1.48718      122.087 
0.00788467     0.329848      104.036 
0.00179900      1.23762      134.018 
0.000298300      1.54237      122.557 
0.00192921      1.54777      122.869 
0.000778757      1.41524      119.644 
0.00213929     0.328938      109.537 
0.000104989      1.23069      133.683 
0.00281613      1.18444      130.549 
0.000118597      1.25160      135.324 
0.00177308      1.40656      119.846 
0.000432725      1.55322      123.179 
0.000123487      1.25873      135.644 
0.000103430      1.26590      135.960 
9.04638e-05      1.55872      123.486 
0.00244492      1.56426      123.792 
0.000118751      1.27311      136.273 
0.00249675      1.28035      136.582 
0.000179139      1.28763      136.888 
0.000449143      1.29495      137.191 
0.000599435      1.17686      130.865 
0.00177954      1.66595      97.9356 
0.000287088      1.65747      98.3256 
0.00170457      1.48165      92.7079 
0.000884539      1.66460      97.5946 
0.00135910      1.48216      93.0941 
0.00891740    0.0900000      90.0000 
0.000125251      1.67200      96.8700 
0.000309917      1.68428      94.0856 
0.00110018     0.500899      116.053 
0.00352658      1.69426      94.0615 
0.00200209      1.60290      99.6974 
6.84195e-05      1.61276      99.6375 
0.00118296     0.505371      117.072 
0.00134081     0.510000      118.072 
0.00175007     0.514782      119.055 
0.00176343      1.49164      92.6898 
0.000478060      1.49121      92.3060 
 0.0227415    0.0905538      96.3402 
0.000219701     0.475395      112.249 
0.000313308      1.49215      93.0733 
0.000275776     0.479270      113.356 
0.00118127      1.67451      97.5494 
0.000969353      1.59305      99.7580 
0.00143095     0.458803      110.410 
0.000280145      1.67586      97.8883 
7.77338e-05     0.487545      115.514 
0.000425146      1.50120      92.2906 
0.000270329      1.59477      100.112 
0.000806727     0.449444      110.854 
4.52631e-05      1.68861      98.5140 
2.09501e-05      1.69012      98.8493 
 0.0219248     0.220907      95.1944 
0.000435437     0.172627      100.008 
0.00216239     0.162788      100.620 
0.000621193     0.230217      92.4896 
0.00152418     0.240208      92.3859 
0.00543697     0.164924      104.036 
0.00103293     0.250200      92.2906 
0.00404714     0.250000      90.0000 
0.00173184     0.250200      87.7094 
0.00214458     0.167631      107.354 
0.000717454     0.250799      85.4261 
0.00108433     0.170880      110.556 
0.000431459     0.251794      83.1572 
0.000202895     0.253180      80.9097 
0.000130770     0.254951      78.6901 
6.40821e-05     0.257099      76.5043 
0.000125630     0.259615      74.3578 
6.15773e-05     0.262488      72.2553 
0.00241204     0.265707      70.2011 
0.000565013     0.174643      113.629 
6.00552e-05     0.251794      96.8428 
5.87992e-05     0.254951      101.310 
5.67637e-05     0.257099      103.496 
5.56318e-05     0.259615      105.642 
0.00149856     0.262488      107.745 
0.00199525     0.178885      116.565 
0.00108010     0.183576      60.6423 
0.00185700     0.107703      111.801 
0.000785097      1.85564      124.461 
0.000439518     0.111803      116.565 
0.000693315      1.65895      124.935 
0.000150411      1.85000      124.205 
0.000145422      1.84440      123.949 
0.000231859      1.83883      123.690 
0.00203806      1.66469      125.218 
9.21152e-05     0.238537      146.976 
0.00190097      1.67872      81.4355 
0.000500964     0.246982      148.241 
4.48301e-05      1.68024      81.0983 
8.90780e-05      1.83330      123.430 
0.000171904      1.82781      123.168 
0.000204041      1.82236      122.905 
0.000266859      1.81695      122.640 
0.000419505     0.104403      106.699 
0.000424513     0.255539      149.421 
0.000361863      1.67048      125.498 
0.000313709      1.81157      122.374 
0.000343122      1.80624      122.106 
0.000389674     0.264197      150.524 
0.000450162     0.101980      101.310 
0.000430380      1.80094      121.837 
0.000375043     0.272947      151.557 
0.000488538     0.100499      95.7106 
0.000807449      1.79569      121.566 
0.00109228      1.67726      81.7733 
0.000272898     0.281780      152.526 
0.00139704      1.79047      121.293 
0.000111588     0.295296      151.699 
0.000291924     0.290689      153.435 
0.000493998     0.100000      90.0000 
0.000633576     0.299667      154.290 
0.000324245      1.65324      124.651 
0.000821654      1.78530      121.019 
0.000506377      1.67586      82.1117 
0.000356257     0.100499      84.2894 
0.000149109      1.64757      124.365 
0.000477170      1.77003      120.187 
4.47032e-05      1.64195      124.077 
0.00339336      1.71817      127.670 
0.000287389      1.76006      119.624 
0.000751292      1.71207      127.405 
0.000724182      1.70602      127.139 
0.000325484      1.76502      119.906 
0.00148522    0.0921954      102.529 
0.000607353      1.70000      126.870 
0.00334241     0.308869      150.945 
0.000486444      1.69402      126.599 
0.000282852      1.68808      126.327 
0.000348692      1.68217      126.052 
0.000175479      1.67631      125.776 
0.000184865      1.67451      82.4506 
3.92833e-05      1.67323      82.7900 
0.000785662      1.72430      127.933 
0.00166598     0.408044      107.103 
0.000492447     0.411096      108.435 
0.000737533      1.82784      108.831 
0.00201459      1.14477      141.028 
0.000133185      1.26570      121.430 
0.000606377      1.25897      136.287 
0.000400239      1.83109      109.128 
0.000328686      1.67323      97.2100 
0.000673379     0.792086      136.023 
0.000526680      1.25718      121.667 
0.000293110     0.392938      104.744 
0.000763953      1.68193      96.8292 
0.000373067      1.34648      117.897 
0.000435679      1.83439      109.423 
0.00138071      1.13701      140.711 
0.00116372      1.26621      136.600 
0.000179876      1.59138      99.4031 
0.000434749      1.68077      96.4908 
5.69692e-05     0.447772      113.703 
0.000622737      1.83774      109.717 
3.60289e-05      1.35532      117.699 
0.00114422      1.36000      118.072 
0.000168056     0.451885      114.864 
0.00103269     0.784920      135.516 
0.000172545     0.390513      103.325 
0.000696051      1.58978      99.0476 
0.00341688      1.27350      136.909 
0.000702485      1.84114      110.010 
0.000769259      1.68668      95.1022 
0.00183277     0.378550      102.200 
0.000150363      1.83175      110.117 
0.000317262     0.368782      102.529 
0.000627796      1.12929      140.389 
0.000341104      1.83521      110.410 
2.03415e-05     0.359026      102.875 
0.00139739     0.356931      101.310 
0.00116874      1.37354      118.244 
0.000430378      1.83872      110.702 
7.84465e-05      1.24868      121.908 
9.57450e-05     0.413038      96.9530 
0.000356638     0.411947      95.5722 
0.00132783     0.366742      101.004 
0.00112756     0.806226      136.005 
0.000162139      1.36883      117.876 
0.000409674      1.84459      110.302 
0.000587855      1.68315      97.1672 
2.11415e-05     0.407922      101.310 
1.01293e-05     0.415933      99.6888 
9.15342e-05     0.414367      98.3256 
0.000621430      1.84228      110.993 
0.00326975     0.411096      94.1849 
0.000525890      1.58824      98.6913 
0.000519157      1.84589      111.283 
0.00547176     0.355106      99.7276 
8.77503e-05     0.396232      100.176 
0.000165370     0.406079      99.9262 
0.000409635      1.15256      141.340 
0.000788948     0.813449      136.494 
0.000277911      1.84808      110.592 
0.000393584      1.38235      118.048 
0.000359249      1.38708      118.413 
0.00143297      1.84954      111.571 
0.000546010     0.820731      136.975 
0.000217914      1.39589      118.217 
0.000574624     0.828070      137.447 
0.000385319      1.39119      117.854 
0.000442731      1.58676      98.3344 
0.00584632     0.353553      98.1301 
0.000241008     0.828794      138.424 
0.000111978      1.38654      117.489 
4.03448e-05     0.835464      137.911 
0.000212890     0.836301      138.879 
0.00264140     0.352278      96.5198 
0.00189116     0.458039      143.881 
0.00245685      1.30752      83.8534 
0.000297487     0.178045      141.843 
7.63966e-05     0.444072      144.162 
0.00139428     0.452217      144.904 
1.14471e-05     0.396989      139.086 
5.96461e-05     0.386005      143.427 
5.68392e-05      1.30863      83.4181 
0.000273259     0.394081      144.293 
0.00204590      1.83358      39.2454 
-0.000988276      1.84318      6.85512 
-0.00182045      4.61686      66.3777 
-0.00125194      3.60555      162.570 
-0.000414651      1.23746      44.6726 
0.000914223      3.09071     -136.180 
-0.000556055      2.82299     -2.63943 
-0.000571733      6.19397      42.3172 
-0.000871763     0.686586     -77.3807 
-0.000550874     0.362215      6.34020 
-7.02371e-05      2.58496      146.679 
-0.000909733      2.57661      146.557 
-0.000526724      6.17985      42.3111 
-0.000828262      1.90421      17.1027 
-6.80542e-05      1.55955      14.4818 
0.00112714      3.14606      151.317 
-0.000373479      2.54283      129.575 
-0.000364669      1.56924      14.3905 
0.000665261      7.21361      46.0110 
-0.000513236      1.54276     -105.027 
-0.00191863      2.81301     -2.64881 
-0.000892837      4.87083      162.681 
6.26451e-05      6.06842      71.6546 
0.00171861      4.94079     -147.564 
-0.000798895      2.00262     -169.644 
0.000689588      1.24788      21.6309 
-0.000887661      5.63639      60.7973 
0.00155793      6.07157      71.5651 
0.000567599      3.17972      103.643 
-0.000116967      1.17154      92.9357 
0.00184793      2.31009     -31.0063 
-0.000117327      2.89456      132.620 
-5.87474e-05      2.81258     -102.109 
-0.00124150      2.81469     -102.308 
-0.000503689      4.61286      66.4915 
-0.000532988      2.88780      132.474 
0.00105869      2.22612      81.2147 
-0.000277555      3.62167      162.816 
5.67606e-05      1.86955      62.6126 
0.000273858      3.15484      151.404 
-0.000213756      2.53647      129.401 
-0.000160933      2.78183     -33.8614 
-0.00146792      6.22403      106.426 
-0.000437704      2.56827      146.434 
5.49801e-05      1.87417      62.3411 
-0.000604085      6.89586      57.2548 
0.000543013      5.20963     -12.3022 
-0.00142824      3.85628     -86.7295 
0.000296357      7.20667      46.0682 
-0.000406127      4.69601      34.5022 
-5.33276e-05      3.33946     -71.1310 
-0.000244975      5.23689     -47.3215 
-0.000505258      3.63123      162.862 
0.000647309      5.49131     -141.878 
-0.000881655      3.34271     -70.9688 
-0.000103111      1.79025     -144.090 
0.000361772      3.20351      177.316 
0.000101190      1.23859      21.8014 
0.00116038      5.26366     -164.010 
-0.00186811      6.31602      75.3257 
0.000198085      3.18209      103.818 
-0.000149917      1.79836     -144.277 
-0.000242937      2.80350     -2.86240 
-0.000147067      2.53014      129.226 
9.76959e-05      3.08380     -136.314 
0.000619457      7.19974      46.1255 
-0.000714470      1.89465      17.1917 
0.000189034      2.72635     -146.368 
-0.000140773      2.77354     -33.9765 
0.000759288      4.91864      28.8057 
0.000142702      1.23491      21.3706 
-0.00171730      1.81232     -144.205 
-0.000444436      2.88106      132.327 
-0.000609665      3.64078      162.909 
-9.42990e-05      6.12954      56.6470 
0.000176000      3.78910     -174.244 
-0.000402385      4.69861      34.3327 
0.000463584      3.17238      103.861 
-0.000372317      5.49604      53.3595 
-4.67462e-05      6.18725      42.2488 
-0.000518075      2.55994      146.310 
-0.000179417      2.52383      129.050 
-0.00104467      5.12925      161.353 
-9.07414e-05      5.38624     -146.664 
-0.000378690     0.563205     -163.496 
-0.000260183      6.12405      56.7251 
0.000165183      4.97579     -10.6550 
8.90887e-05      7.19281      46.1829 
-0.000386801      5.92704      58.8041 
-4.53219e-05      2.40354     -165.790 
-8.81119e-05     0.352278      6.51981 
-0.000129630      5.23748     -47.4761 
-0.000286224      4.86368      101.264 
0.000170177      1.22560      21.5410 
-0.000353328      2.41323     -165.849 
0.000590072      5.19986     -12.3256 
8.60374e-05      2.71803     -146.251 
-0.000206377      3.67523     -34.4684 
-0.000275594      6.90127      57.1850 
-0.000166275      5.37789     -146.605 
0.000265770      2.16816     -53.8172 
-8.26551e-05      2.75966     -33.9204 
0.000235262      4.80368      120.943 
0.000204115      1.98957      30.1735 
-0.000559839      3.85686     -86.5812 
0.000604585      1.67314     -157.881 
4.18877e-05      1.84133      39.0486 
-0.000675514      3.65034      162.955 
-0.000393059      4.70687      34.2640 
-4.12205e-05      2.51754      128.873 
-0.000626099      5.19115     -49.3748 
-0.000158271      2.81684     -102.507 
0.000659308      2.17407     -53.6045 
0.000288125      2.74854     -146.426 
-4.07363e-05      5.24424     -47.3956 
4.06687e-05      3.15087      151.157 
-0.000118049      6.11857      56.8034 
0.000467150      4.66181      165.338 
0.000980663      6.07474      71.4756 
-0.00118533      5.94077      58.7716 
-0.00106341      4.93228      1.74274 
-0.000271926      6.11400     -36.8886 
-0.000226446      2.87433      132.180 
-0.000410987      3.16891      72.3655 
-7.91695e-05      5.94596      58.6892 
0.000215432      5.63575     -135.359 
-0.000551491      3.52870     -39.8264 
-0.000547953      4.83228     -136.929 
-0.000626357      7.45017      53.5146 
7.76846e-05      5.09716     -140.094 
0.000500030      1.99822      30.0294 
-3.81590e-05      4.24487     -128.976 
0.000541346      5.08949     -140.021 
-7.42167e-05      2.36780     -167.314 
-3.77619e-05      2.51127      128.695 
-0.000253009      4.25116     -129.081 
-0.00312735      6.08809     -37.1899 
3.74293e-05      7.10498      47.2815 
-0.00225991      6.09606     -37.1331 
0.000107466      5.33805      128.459 
0.000382123      6.22371      38.2141 
-0.000391684      3.89019     -121.974 
-0.000178207      4.71514      34.1956 
0.000171738      6.55305     -141.381 
-0.000371010      4.98293      12.7533 
-7.18272e-05      2.55163      146.185 
0.000104010      3.21350      177.325 
0.000337464      4.71819      121.568 
-3.58520e-05      3.88419     -126.309 
0.000132121      7.09820      47.3408 
0.000163432      4.98562     -10.6338 
-0.000236466      2.35805     -167.260 
0.000709692      6.55930     -141.313 
-3.53190e-05      6.11310      56.8818 
0.000102890      7.22034      45.8417 
0.000158409      3.16028      103.728 
-0.000930649      3.53638     -39.7226 
0.000237565      4.93543     -147.662 
-0.000101563      2.86763      132.032 
0.000260503      5.27327     -164.040 
-6.45672e-05      4.60888      66.6055 
0.000935723      6.26572     -141.155 
-0.000579151     0.667608      16.5348 
0.000767848      5.21728     -12.1715 
0.000392429      7.01242      122.716 
0.000219180      1.21631      21.7139 
6.69804e-05      4.66717      48.2135 
-0.000643237      3.17196      72.1934 
3.41994e-05      3.43910      4.16871 
6.75798e-05      5.56345      68.0456 
-0.000440328      4.72341      34.1274 
-0.000132971      4.25748     -129.185 
-6.71670e-05      2.71266     -177.465 
-0.000470424      3.66657      163.196 
0.000803839      5.56720      67.9501 
-0.000667431      4.84641     -136.923 
3.32328e-05      3.13729      151.229 
3.32352e-05      2.02921      29.8499 
-3.31156e-05      2.81902     -102.705 
0.000128426      5.33023      128.526 
0.000128209      2.18442      29.0291 
-0.000159272      2.70224     -177.667 
3.24693e-05      3.37251     -138.606 
0.000680691      4.94389     -147.724 
-9.44965e-05      2.86094      131.883 
-6.24355e-05      5.06306     -45.4801 
0.000678094      4.94446     -177.566 
0.000412399      6.23776      38.2295 
0.000397997      5.94121      91.1573 
-0.000123216      4.26380     -129.289 
6.26470e-05      7.08544      45.4574 
0.000177459      4.01609     -161.565 
0.000651444      1.35768     -69.2958 
-0.000187222      2.42539     -165.677 
6.19505e-05      2.19802      29.1306 
-0.000117768      5.18464     -49.4586 
0.000119798      5.20650      115.482 
9.09588e-05      3.16267      103.904 
0.000119413      5.41673      74.9119 
-0.000863059      4.92229      1.74628 
0.000174638      4.90087     -170.961 
3.11797e-05      4.92740      28.7497 
0.000179329      4.57231      59.5090 
-0.000151887      4.64663      159.069 
0.000189977      4.95155      122.631 
-9.10158e-05      2.55644     -119.272 
-0.000281987      2.35587     -167.498 
-0.000480067      2.80302     -2.65825 
0.000414213      7.03166      122.809 
0.00109386      3.94129     -103.648 
0.000241150      4.72343      121.671 
0.000224331      3.12674      164.986 
6.04888e-05      4.61842     -129.377 
0.000248103      4.99545     -10.6126 
3.03011e-05      7.22731      45.7848 
0.000117836      7.10660      45.3991 
-0.000251276      4.73169      34.0595 
0.000141353      2.20676      29.0042 
-8.90379e-05      2.85428      131.734 
-0.000448693      5.33520      163.671 
-0.000115489      2.69225     -177.658 
0.000217452      5.08183     -139.949 
-8.47009e-05      4.98515      12.8654 
0.000989554      4.80337     -138.545 
-0.000193931      6.07824     -37.3789 
-0.000164974      1.85311      6.81822 
0.000253345      4.61208     -129.281 
-0.000586911      4.66889      159.042 
-0.000114774      4.27014     -129.393 
0.000136192      5.28289     -164.070 
-0.000647670      3.87114     -121.801 
2.92295e-05      3.58560     -170.853 
-0.000415078      3.65699      163.151 
-0.000134758      2.84155     -67.2250 
-8.55266e-05      2.56135     -119.467 
0.000159304      5.75035     -43.6612 
8.18073e-05      2.22036      29.1047 
0.000245730      6.07793      71.3862 
-2.86390e-05      4.03595      28.4065 
-0.000137546      4.60492      66.7197 
0.000312052      2.24964      102.059 
-2.84547e-05      5.11978      161.317 
0.000553750      4.56724      59.6171 
0.000157533      3.57572     -170.827 
-0.000270053      4.03120      28.2815 
2.80274e-05      5.33646      128.610 
0.000240029      5.20220      115.383 
0.000109174      7.12776      45.3410 
-0.00142533      4.49165     -115.025 
-0.000181165      1.80422     -144.019 
-0.000135564      6.48297      69.6922 
-5.53731e-05      2.84763      131.583 
0.000263287      4.83793      43.6600 
0.000104208      1.20702      21.8896 
0.00134606      7.03708      122.877 
2.73539e-05      3.15297      103.948 
-0.000313512      7.44423      53.5765 
-0.000105949      2.56628     -119.662 
-0.000106161      4.27649     -129.497 
2.71779e-05      7.22713      45.6727 
0.000176192      4.02558     -161.610 
0.000239899      3.15057      103.772 
-5.32160e-05      2.84100      131.433 
0.000498264      4.60576     -129.184 
-0.000100546      2.68226     -177.650 
-7.82723e-05      3.07415     -19.3780 
0.000731013      5.57096      67.8548 
5.23540e-05      5.34271      128.693 
0.000153628      6.22990      38.2864 
0.000315737      4.90988      28.8619 
7.74205e-05      7.14894      45.2834 
2.61873e-05      6.74893      55.3210 
5.03490e-05      2.76877     -115.454 
-0.000197687      4.60098      66.8341 
0.000943096      5.20378     -169.705 
-0.00110166      5.33240      163.774 
-0.000122753      3.19390     -119.856 
0.000150960      6.08113      71.2969 
-7.70341e-05      4.73998      33.9918 
-0.000124982      5.85085      84.1140 
-0.000146629      6.47707      69.5785 
-5.07561e-05      6.32630      39.8056 
-5.12114e-05      6.19879     -40.5512 
-7.58903e-05      2.83440      131.281 
2.55968e-05      7.23412      45.6161 
-7.31282e-05      3.93895     -76.4930 
0.000268187      4.83103      43.5742 
-0.000339489      6.19120     -40.6113 
-7.27559e-05      4.02240      28.3490 
-2.52571e-05      2.35372     -167.735 
-4.98185e-05      4.30332     -129.720 
-0.000541657      6.14811     -36.5344 
-0.000457270      4.84022     -124.478 
-0.000147475      5.74543      68.3467 
-0.000122602      3.08029     -19.1408 
-9.87175e-05      4.74827      33.9243 
0.000145188      7.16308      45.2828 
0.000141506      5.29250     -164.099 
-4.95028e-05      2.57124     -119.855 
0.000349443      5.52655      78.7307 
0.000540264      5.40056      34.5140 
-4.82165e-05      2.34395     -167.683 
0.000313997      6.24395      38.3015 
-4.84720e-05      2.82781      131.129 
4.78727e-05      1.68241     -158.009 
0.000115274      5.47442      154.231 
0.000336685      4.95445     -177.571 
0.000290183      5.76449     -43.6645 
2.40817e-05      7.23398      45.5041 
-2.40428e-05      2.56759     -120.160 
4.53813e-05      3.11708      164.938 
0.000380736      5.80086      107.248 
-9.43121e-05      4.75657      33.8571 
-6.98584e-05      4.30972     -129.823 
-0.000359762      4.67823      159.086 
7.10035e-05      6.08434      71.2077 
-0.000113453      4.85372     -137.004 
-9.34533e-05      4.80321     -23.0420 
-0.000226690      5.74913      68.2541 
2.37379e-05      5.00345     -10.4790 
-6.99422e-05      4.84588     -124.576 
-6.93455e-05      2.82124      130.976 
-4.58870e-05      2.57624     -120.048 
-4.66103e-05      5.86394      83.8325 
0.000172376      2.23397      29.2041 
0.000410816      1.35418     -69.6916 
0.000136046      5.52852      78.6291 
-4.57394e-05      5.05606     -45.5609 
0.00119737      6.38048      60.6227 
-9.13096e-05      1.79613     -143.832 
6.66462e-05      5.07418     -139.876 
-2.33115e-05      2.43756     -165.508 
-2.32404e-05      5.86287      83.9296 
4.62334e-05      5.81414      46.3938 
0.000284528      7.17722      45.2822 
-2.32174e-05      2.59332      146.800 
-0.000134496      3.07703     -18.9649 
-4.58948e-05      2.57263     -120.353 
-0.000245278      6.18361     -40.6716 
-0.000181039      7.85644      130.095 
4.44611e-05      2.77908     -146.596 
-4.48192e-05      6.48057      69.4957 
-2.29092e-05      4.59705      66.9487 
-0.000374742      3.87642     -121.927 
-0.000130443      6.21895      145.416 
-0.000764116      5.24931     -138.475 
2.27858e-05      2.77308     -115.641 
-0.000110967      4.76488      33.7901 
-4.53342e-05      5.88063      82.4762 
-0.000190580      6.07030     -37.4362 
-0.000173709      3.64742      163.105 
2.26613e-05      5.00528     -10.5915 
0.000373034      5.82138      46.4617 
4.43594e-05      6.08757      71.1186 
-0.000209907      3.19889     -120.011 
-0.000187430      2.51849     -124.321 
-6.55239e-05      4.79401     -23.0887 
-4.44936e-05      5.88195      82.3796 
-0.000342706      6.34039      39.8171 
-8.67614e-05      2.81469      130.822 
0.000128371      5.30212     -164.129 
-0.000323426      7.85001      130.039 
-6.40307e-05      2.67226     -177.641 
-6.50827e-05      2.58126     -120.240 
-6.35229e-05      3.16244      72.1380 
-2.19336e-05      5.86183      84.0268 
-6.43207e-05      1.78807     -143.643 
-6.39650e-05      4.31613     -129.925 
4.19942e-05      5.21668      111.006 
0.000147275      4.90112      28.9183 
6.44899e-05      4.81087     -138.624 
8.45293e-05      4.95234     -147.786 
-8.58716e-05      5.88328      82.2831 
0.000199374      6.25794     -141.097 
-0.000124798      3.08326     -18.7288 
-2.14141e-05      2.61008      147.041 
-0.000102890      6.47472      69.3818 
-6.31568e-05      4.77320      33.7234 
-0.000493487      6.17603     -40.7321 
-0.000163715      5.75284      68.1616 
2.11152e-05      6.09081      71.0296 
6.15439e-05      2.00689      29.8865 
6.17519e-05      3.14821      103.595 
-0.000335214      4.70048      159.059 
-4.13858e-05      5.85978      84.2213 
-0.000102346      5.88463      82.1866 
-6.16400e-05      4.04001      28.2143 
-4.14254e-05      2.58631     -120.432 
-0.000284779      7.84358      129.983 
0.000269721      5.64278     -135.287 
-8.00949e-05      7.43829      53.6385 
-0.000353644      6.31349      75.4135 
0.000141910      5.79790      107.154 
0.000175989      2.31866     -30.8790 
0.000233310      5.57474      67.7596 
-6.06525e-05      4.78481     -23.1357 
-8.00869e-05      1.78003     -143.452 
0.000273088      5.75726     -43.7332 
-9.88542e-05      2.80817      130.668 
-6.07274e-05      4.95445     -159.809 
0.000174020      4.95404     -177.686 
0.000329870      6.23610      38.3585 
9.99880e-05      5.31174     -164.158 
-6.03477e-05      4.78152      33.6568 
-2.04063e-05      2.61847      147.160 
0.000253341      7.19136      45.2817 
-6.02552e-05      2.82255     -2.43665 
-0.000118457      3.63786      163.059 
-0.000203372      6.12200     -36.8325 
0.000227718      4.17770     -172.297 
2.03041e-05      6.72715      130.962 
0.000191681      4.90597      29.0206 
0.000175227      7.41855      131.338 
2.02185e-05      6.09407      70.9407 
0.000470759      5.22496     -12.0411 
-3.98719e-05      3.57946     -98.5149 
-2.00899e-05      2.59139     -120.622 
-0.000330274      6.21328      145.491 
-7.67225e-05      3.57799     -98.3566 
1.99574e-05      4.72019      121.838 
3.92796e-05      5.08827     -139.863 
1.99195e-05      4.94702     -147.884 
-1.98888e-05      4.32256     -130.026 
0.000230300      7.15417      132.791 
-0.000134680      3.08955     -18.4936 
-5.78920e-05      5.85878      84.3186 
-9.46847e-05      2.63053     -169.929 
-5.75122e-05      3.93662     -76.6345 
-1.97698e-05      4.96384     -159.849 
9.15692e-05      4.82380      43.6561 
5.63710e-05      6.73371      131.026 
-0.000151669      5.88600      82.0902 
-1.97045e-05      4.85791      100.917 
-0.000251134      7.83716      129.927 
0.000223981      1.34480     -69.5437 
-1.96561e-05      4.40596      136.012 
0.000188888      5.80746      107.124 
-0.000622083      6.47825      69.2990 
-5.74166e-05      4.04883      28.1474 
3.85949e-05      5.21311      110.903 
-7.74445e-05      5.00484     -159.900 
-7.51185e-05      2.22812     -121.978 
-0.000113518      6.06236     -37.4937 
-7.65265e-05      4.77561     -23.1828 
-1.94900e-05      2.64038     -169.967 
-9.31320e-05      5.04906     -45.6419 
-0.00143242      5.57380     -136.454 
-0.00497371      6.59553      39.2161 
-0.000243102      4.41316      136.102 
-5.76107e-05      4.78984      33.5905 
-0.000537639      6.16845     -40.7927 
-0.000938613      5.32962      163.877 
0.000258291      5.64571     -46.8661 
-9.40644e-05      5.75657      68.0692 
0.000221575      4.59945     -129.088 
-0.000114204      4.01199     -175.568 
-0.000166446      5.42308      156.413 
-9.25593e-05      5.13206     -126.602 
-5.65278e-05      5.01423     -159.939 
-0.000279557      7.83074      129.871 
-0.000652551      5.66697      25.6155 
-7.47873e-05      3.88171     -122.052 
0.000110762      5.37842      34.5469 
7.27687e-05      3.94635     -103.332 
1.87866e-05      2.78180     -116.012 
-9.06018e-05      4.79818      33.5245 
3.71399e-05      6.13949      70.2960 
0.000235698      7.20551      45.2811 
-0.000248246      6.33271      39.8751 
0.000265340      7.41195      131.280 
-0.000128693      4.95004     -179.769 
1.85964e-05      3.13849      103.638 
-0.000266199      4.00202     -175.557 
-5.53400e-05      4.76642     -23.2302 
-5.53440e-05      5.02362     -159.978 
7.32327e-05      6.53900     -38.6051 
-1.85638e-05      1.77200     -143.259 
1.85394e-05      3.94867     -103.473 
0.000176871      6.25016     -141.040 
0.000547331      6.25015      38.3735 
-0.000576300      3.65453      68.4897 
-9.07899e-05      3.09588     -18.2594 
1.84736e-05      7.14738      132.732 
8.99875e-05      2.32725     -30.7526 
-8.79423e-05      6.13001     -36.7764 
-3.66791e-05      3.64453      163.256 
9.06332e-05      7.14003      132.786 
0.000142828      4.82499     -138.613 
-0.000768947      7.82433      129.815 
0.000242388      5.65692     -135.286 
0.000356665      5.32136     -164.188 
0.000177392      4.89722      29.0773 
0.000208612      5.77139     -43.7363 
-1.82024e-05      5.03302     -160.017 
-1.82043e-05      3.40824      69.3849 
-5.43035e-05      3.89550     -122.099 
0.000494017      7.21965      45.2806 
-0.000106953      3.54419     -136.715 
-0.000142763      5.88738      81.9938 
-0.000230265      4.19624      25.0994 
-1.81318e-05      2.62069     -169.891 
-5.31157e-05      5.76958      68.0142 
-5.39010e-05      5.07403     -160.065 
0.000140572      5.80452      107.030 
5.37050e-05      6.16248      69.9772 
-1.80111e-05      5.66199      88.4819 
-0.000808297      4.96001     -179.884 
-3.57745e-05      4.75724     -23.2777 
-5.11966e-05      5.37314      22.8906 
1.79583e-05      2.78620     -116.197 
7.10602e-05      4.96403     -177.691 
-0.000140322      4.78280     -32.3609 
0.000868242      5.22705     -12.1483 
-8.79155e-05      6.86601      126.770 
-3.57266e-05      5.43225      156.455 
-0.000189086      5.65199      88.4792 
-1.78420e-05      1.76400     -143.065 
-3.55695e-05      4.42037      136.192 
0.000252224      6.53276     -38.5365 
0.000657518      6.23412     -143.479 
-5.29526e-05      4.11637      69.6720 
-8.71196e-05      3.34598     -70.8069 
5.24886e-05      4.16779     -172.278 
3.51573e-05      5.37019      34.6074 
1.77357e-05      5.97291      54.1278 
-5.29131e-05      4.91229      1.74984 
-5.25600e-05      4.70982      159.102 
-0.000391516      5.43743      156.594 
-7.01417e-05      5.08343     -160.104 
6.87573e-05      7.13325      132.728 
8.66981e-05      3.16509      171.460 
-0.000592860      6.48179      69.2163 
-6.96852e-05      3.10538     -18.2016 
-0.000135539      3.90082     -122.223 
0.000238784      4.59315     -128.991 
-0.000139111      6.47244      69.1849 
-0.000205346      4.42069      136.375 
-6.76936e-05      6.00594      65.6113 
0.000367538      4.96364     -177.806 
0.000150263      6.15907      70.0646 
-0.000188615      4.91261      1.86641 
-0.000203592      5.88879      81.8974 
-5.16792e-05      1.75602     -142.869 
0.000665260      5.64982     -135.215 
-0.000136872      3.53734     -136.833 
-0.000260742      4.11291      69.8027 
0.00162879      5.82864      46.5294 
-0.000541769      5.43386      160.431 
-3.42035e-05      2.61084     -169.852 
6.75518e-05      2.33585     -30.6272 
-0.000101961      5.09284     -160.142 
0.000135256      4.88849      29.1343 
-5.11914e-05      4.79125     -32.2969 
-0.000343866      4.18718      25.1574 
-5.11747e-05      6.86805      126.653 
-0.000478235      6.47600      69.1022 
1.71415e-05      2.79508     -116.565 
-1.71279e-05      4.71340      158.989 
5.07725e-05     0.486621     -9.46232 
-6.74939e-05      3.11178     -17.9691 
-0.00173997      6.10404     -37.0764 
-0.000212550      4.72273      159.032 
-0.000476188      7.81793      129.759 
0.000514597      6.24232      38.4305 
-1.68837e-05      4.74805     -23.3253 
-3.29749e-05      4.80652      33.4586 
-8.23789e-05      1.74806     -142.671 
-4.98661e-05      3.34928     -70.6454 
-0.000338581      4.77973     -32.5264 
-0.000310586      4.90261      1.87022 
-0.000194936      6.86208      126.586 
1.68033e-05      5.80160      106.936 
-0.000113639      3.99205     -175.546 
0.000147388      7.40536      131.222 
-0.000195294      3.54464     -136.943 
-1.66820e-05      5.10224     -160.180 
0.000145402      3.15373      171.613 
1.66830e-05      6.74027      131.090 
8.21020e-05      5.81409      107.001 
1.66437e-05      5.34805      34.6409 
3.28876e-05      5.47878      154.136 
3.25914e-05     0.496488     -9.27259 
-0.000130053      6.31095      39.9218 
0.000696257      7.23379      45.2800 
4.91827e-05      6.17875      69.8347 
0.000178674      5.75782      33.8833 
-0.000195065      4.42793      136.464 
0.000177080      5.77862     -43.6678 
-0.000128766      4.91757      6.06999 
-0.000114203      5.12445     -160.151 
-9.69488e-05      2.96220     -143.788 
-1.65706e-05      4.73887     -23.3732 
-0.000113255      3.12130     -17.9125 
6.51644e-05      7.12646      132.668 
0.000283799      6.43212      56.9276 
6.52872e-05      4.87488      29.0889 
-0.000273894      6.11498      78.3961 
-3.27730e-05      5.65173      88.5806 
-8.12045e-05      5.23978     -135.387 
0.000378872      4.58686     -128.894 
3.21497e-05      4.19887     -172.198 
6.51002e-05      6.38919      60.6667 
-3.24199e-05      2.60100     -169.813 
-0.000520223      5.44661      156.636 
1.63112e-05      1.34134     -69.9439 
1.62025e-05      2.34446     -30.5027 
-1.61877e-05      3.36204     -70.5411 
0.000268203      5.52004      117.865 
4.76206e-05      3.95506     -39.7685 
-0.00103606      5.58105     -136.525 
0.000233769      5.20200     -169.813 
-0.000253993      4.95001     -179.884 
-0.00212345      6.11202     -37.0199 
-0.00122922      7.81154      129.702 
-6.36633e-05      3.90616     -122.347 
0.000110702      6.38430      60.7449 
-0.000482386      5.99404      87.8966 
-7.91303e-05      5.41025      102.598 
4.74429e-05      5.81117      106.907 
-0.000201388      3.36538     -70.3805 
4.79622e-05      4.97363     -177.811 
4.76254e-05      4.86615      29.1461 
0.000328866      6.21209     -143.444 
-1.59660e-05      1.74011     -142.472 
-4.75033e-05      6.01918      65.5639 
7.90084e-05      6.47707     -37.9138 
0.000156719      7.39877      131.164 
-0.000371576      4.43519      136.553 
-0.000575010      6.47958      69.0196 
-3.16774e-05      2.59116     -169.774 
0.000109986      5.21591      152.108 
0.00500348      6.32064      36.0540 
0.000327913      4.97326     -177.926 
-1.58875e-05      6.30328      39.9801 
-3.15707e-05      5.13386     -160.189 
0.000401538      3.84880     -7.01423 
0.000247518      5.74394      33.8561 
-0.000171864      4.89262      1.87404 
-0.000202533      2.54136      174.581 
0.000109321      6.15566      70.1521 
-0.000278224      6.28920      39.9689 
-0.000322818      5.23267     -135.310 
-7.77769e-05      3.55196     -137.054 
-6.25018e-05      5.51134      98.5565 
7.82338e-05      4.50818      152.810 
-0.000508449      6.11298      78.4879 
0.000433113      5.22917     -12.2555 
-0.000216457      4.48636      25.4798 
4.69619e-05      6.52494     -38.5912 
-0.00108116      4.90763      6.08234 
-1.56817e-05      4.72052     -23.4695 
4.66433e-05      7.02624      122.740 
-1.56779e-05      6.96427      56.2415 
-0.000338613      4.48743     -114.909 
6.22916e-05      5.63568     -135.216 
-0.000124104      6.85613      126.519 
-7.77878e-05      3.56609     -137.045 
-7.74391e-05      3.66384      68.5471 
-3.12491e-05      5.67226      141.514 
0.000307510      5.78586     -43.5994 
-0.000277729      1.46342     -176.082 
1.55775e-05      5.52461      78.8324 
6.22246e-05      4.50388      152.638 
-3.10855e-05      6.95595      56.1957 
-0.000108484      6.06238     -144.737 
-0.000138954      5.66443      141.451 
-9.27821e-05      4.89902     -124.858 
-1.55613e-05      3.98208     -175.535 
-3.10353e-05      4.76828     -32.7569 
1.55104e-05      6.52654     -38.4679 
0.000123028      5.20707      152.057 
1.54892e-05      3.85873     -6.99610 
-0.000428657      4.96000      180.000 
-0.000138554      4.77669     -32.6920 
7.69730e-05      6.51713     -38.6461 
1.54880e-05      7.22669      45.2242 
9.25206e-05      6.21728      79.3407 
-0.000521308      7.80516      129.646 
-4.61298e-05      2.97027     -143.902 
0.000123168      7.39219      131.106 
-0.000535296      5.66697     -25.6155 
0.00198328      6.19007     -143.408 
9.24039e-05      4.49929      152.752 
-0.00197028      6.04845     -144.760 
-0.000168352      4.88262      1.87788 
-6.13288e-05      6.96152      56.1273 
-0.000184039      5.08063     -130.210 
0.000260202      5.52888      117.816 
-7.65407e-05      5.51284      98.6592 
0.000846589      4.49500      152.580 
-0.000153203      4.17813      25.2157 
-1.54116e-05      7.29154      48.7254 
-1.53909e-05      4.71135     -23.5180 
0.000229729      4.98325     -177.930 
3.07258e-05      6.15228      70.2397 
0.000152870      6.23448      38.4876 
0.000168147      6.21544      79.4313 
-0.000396994      5.45580      156.677 
4.58597e-05      6.53919      110.874 
-0.000137445      3.57342     -137.155 
-0.00631952      6.04028     -144.705 
3.06510e-05      5.52073      31.4443 
-1.53363e-05      3.94867     -76.5268 
0.000688308      7.24083      45.2238 
-3.06042e-05      4.73207      159.075 
-0.000106890      6.85018      126.452 
0.000107072      7.39317      130.996 
-0.000106849      4.92441     -125.078 
-1.53217e-05      1.84567     -45.6585 
-0.000877839      5.32685      163.981 
4.57752e-05      7.02084      122.671 
-0.000122252      2.53140      174.560 
-0.000351225      5.64462      25.6117 
-9.15113e-05      5.65662      141.388 
-0.000152579      4.78511     -32.6273 
1.52926e-05      6.14890      70.3274 
9.15068e-05      6.50932     -38.7010 
-0.00113716      6.48891      69.0512 
0.00106536      6.32653      36.1273 
-3.05048e-05      3.95101     -76.3858 
-3.05152e-05      4.70218     -23.5666 
0.000370278      6.35232     -143.707 
-0.000198309      4.49539      25.4250 
0.000537866      6.35147      124.090 
0.000597355      5.41842     -155.232 
0.000381530      7.38661      130.938 
-9.15170e-05      1.47340     -176.108 
-1.52615e-05      7.28494      48.7845 
3.04609e-05      5.52927      31.3903 
0.000535476      5.23130     -12.3625 
1.52455e-05      6.13277      70.4719 
6.09424e-05      5.20239      152.154 
9.14155e-05      4.98290     -178.045 
6.09650e-05      6.51871     -38.5225 
6.09604e-05      6.44596      56.9016 
-0.000108669      6.30849      75.5893 
-0.000368137      6.28154      40.0275 
-9.14213e-05      4.61603     -14.9394 
-6.09957e-05      5.08709     -130.296 
1.52295e-05      6.12944      70.5600 
0.000121944      6.21361      79.5220 
3.04726e-05      4.51480     -28.4383 
9.15311e-05      7.11292      132.550 
-1.52193e-05      6.16951     -40.6617 
0.000106661      6.18205     -143.353 
-0.000340734      4.87263      1.88173 
0.000870448      4.99289     -178.049 
0.000323303      4.52359     -28.3780 
-0.000229148      6.92012      58.6529 
-9.15252e-05      5.14666     -160.122 
-0.000214834      4.94410     -125.201 
-0.000122197      4.79354     -32.5629 
0.000107178      6.24854      38.5023 
0.00115512      6.16003     -143.316 
0.000487303      7.50031      54.5511 
-4.57732e-05      5.64881      141.324 
-1.52377e-05      4.77636      34.4220 
-7.63802e-05      3.58075     -137.263 
0.000418929      6.51089     -38.5773 
-0.000308836      6.11099      78.5797 
-7.63943e-05      4.77378      34.5889 
-0.000399899      5.58831     -136.595 
-6.10930e-05      4.62569     -14.9075 
-0.000106896      7.80385      129.749 
-1.52485e-05      2.55362     -169.394 
0.000153361      3.56894     -30.6609 
-0.00113206      7.81025      129.806 
-4.59464e-05      4.78440     -127.612 
0.000107379      6.21180      79.6127 
-6.14495e-05      6.84425      126.384 
-7.68124e-05      4.63243      178.144 
-1.52598e-05      4.69302     -23.6154 
-0.000138376      5.56864     -148.736 
-6.16374e-05      1.83870     -45.8814 
-7.67126e-05      6.61810      113.699 
-0.000358043      4.97001      179.885 
-0.000153711      5.22556     -135.233 
0.000170551      7.10617      132.491 
-0.000293640      5.46498      156.719 
-9.21469e-05      5.15606     -160.159 
-0.000233174      4.63280     -14.7562 
4.60689e-05      5.52422      117.725 
-3.07030e-05      4.68386     -23.6644 
0.000402455      7.38006      130.879 
-0.00225615      5.63560      25.6557 
3.07742e-05      6.45980      56.8757 
6.14839e-05      3.28976     -61.0976 
-4.62881e-05      2.54380     -169.353 
-1.53396e-05      7.27836      48.8437 
-9.27335e-05      4.49110      25.3098 
-0.000373195      6.91493      58.7236 
-0.000670029      5.67130     -25.7066 
-0.000123978      4.77125      34.7559 
0.000239171      4.15076      117.553 
-6.19439e-05      5.34401      36.7841 
-1.53844e-05      5.64100      141.261 
-7.75718e-05      4.80197     -32.4986 
0.000299867      5.53307      117.677 
-7.78132e-05      4.77038     -127.591 
-6.18736e-05      3.58811     -137.372 
-9.37909e-05      6.20762      145.568 
-0.000203235      6.61408      113.619 
0.00100263      5.23345     -12.4694 
-1.54401e-05      2.52145      174.538 
0.000140260      3.29460     -60.9454 
0.000406394      6.21001      79.7034 
-9.34391e-05      4.43559      136.736 
-0.000171170      5.15947     -160.055 
0.000496193      3.56034     -30.7430 
0.00481490      7.24788      45.1677 
-4.65792e-05      4.67470     -23.7136 
-0.000329950      5.24681     -135.309 
4.66010e-05      6.47364      56.8500 
-1.54713e-05      3.93146     -175.624 
0.000226301      6.05670      35.9996 
-4.65812e-05      5.03231     -42.5035 
-0.000576546      5.55676     -148.541 
-0.00158961      6.27388      40.0862 
9.42429e-05      6.31972      120.948 
3.12282e-05      4.24973     -39.2704 
-4.67973e-05      3.92149     -175.613 
9.36313e-05      5.42750     -155.276 
0.000727809      5.84277      46.5257 
-0.000640994      5.59558     -136.666 
-3.11853e-05      7.74530      52.0796 
-0.000712420      5.01818     -42.4964 
-3.13066e-05      4.64242      178.148 
1.56410e-05      6.48748      56.8243 
-1.56331e-05      3.59547     -137.480 
-6.33487e-05      4.95803     -125.229 
-0.000255478      7.75145      52.0213 
-4.72664e-05      4.66554     -23.7630 
0.000285472      5.42262     -155.136 
-0.000162907      4.16909      25.2743 
1.56460e-05      6.24071      38.5594 
-1.56664e-05      7.27178      48.9030 
-0.000418300      5.47417      156.760 
0.000577196      6.35708      124.165 
0.00156520      7.38109      130.770 
1.56669e-05      4.28351     -32.3173 
-1.56839e-05      4.70116      168.093 
4.71757e-05      6.50132      56.7988 
-3.14974e-05      3.91152     -175.601 
0.000526851      5.02333      133.064 
-0.000207965      5.55932     -34.8907 
-0.000111738      4.77696      34.8545 
-0.000143873      4.71094      168.118 
-0.000127006      5.16289     -159.951 
0.000282927      4.29197     -32.2459 
-0.00203017      7.81666      129.862 
-4.77057e-05      4.50014      25.2553 
-1.57886e-05      3.61697     -137.577 
-0.000212158      4.79893     -32.6635 
0.000563844      4.48612      152.521 
4.83945e-05      3.54018     -10.5799 
7.96416e-05      6.51517      56.7734 
1.58521e-05      4.25748     -39.1852 
-0.000526979      5.98532     -34.0352 
-0.000464395      6.90974      58.7945 
-0.000196898      6.10902      78.6717 
-8.03920e-05      4.86263      1.88560 
-0.000146428      6.49250      68.9688 
4.83474e-05      3.29947     -60.7936 
-1.60027e-05      3.90155     -175.590 
-1.60125e-05      4.76455      137.807 
-0.000503554      4.97004      179.769 
-0.000488416      4.21503     -77.8103 
-4.83268e-05      4.64247     -14.7247 
6.50069e-05      6.34641     -143.780 
0.000214638      6.50308     -38.6323 
-9.82520e-05      6.19937      145.515 
-0.000229325      5.17228     -159.989 
0.000146291      6.52901      56.7480 
0.000615032      5.43169     -155.181 
3.22254e-05      6.20823      79.7942 
-9.84019e-05      6.61008      113.540 
-0.000571487      5.23970     -135.232 
0.000347085      5.00289     -178.053 
-3.23788e-05      3.87088     -175.703 
3.26196e-05      6.32487      121.026 
-8.25656e-05      4.76246     -127.664 
-3.25227e-05      4.50919      25.2011 
-1.62389e-05      3.62436     -137.684 
0.000850333      7.71495      48.5206 
-0.000165787      4.87297      1.99925 
-0.000171298      4.64961     -14.5742 
0.000184134      5.70656     -153.794 
-3.27615e-05      4.72073      168.143 
-8.40073e-05      4.75784      137.896 
-3.27402e-05      3.86091     -175.692 
-0.000168016      4.76875      34.9231 
4.97304e-05      4.26523     -39.1004 
4.94331e-05      3.99811     -116.757 
0.000440400      5.54658      117.720 
-0.00103942      4.89663      5.97838 
1.64048e-05      2.43988      113.939 
-1.64607e-05      5.55112     -34.9497 
-0.000170358      7.75761      51.9631 
-0.000268065      4.42412      165.336 
-1.64896e-05      7.20428      49.2779 
0.00141498      6.54835      56.6497 
0.000540867      7.50611      54.4889 
-0.000308944      5.56182     -34.7473 
-0.000584236      5.60286     -136.736 
-0.000672655      5.48336      156.801 
0.000809854      4.30043     -32.1749 
-3.33179e-05      3.85093     -175.681 
0.00153833      5.23562     -12.5763 
-0.000243218      5.03219      176.012 
-1.66775e-05      4.64217     -24.0251 
5.06049e-05      5.38547      161.935 
-3.37196e-05      4.25842     -23.6756 
-0.000188271      5.18168     -160.026 
1.68158e-05      4.00256     -116.565 
-0.00732051      5.32410      164.084 
-3.38675e-05      4.21286      166.129 
-1.68502e-05      3.82027     -175.797 
-0.000157618      6.59294      113.415 
1.68742e-05      2.47413      49.0973 
-6.84884e-05      3.81030     -175.786 
-0.000227433      4.86297      2.00336 
-0.000121284      5.36958     -161.768 
0.000175683      3.55175     -30.8254 
6.96332e-05      4.00704     -116.693 
6.97115e-05      4.15539      117.675 
-0.000243172      4.43379      165.368 
-0.000140760      4.79593     -32.8285 
-0.000104930      5.67565     -25.7975 
5.22816e-05      2.46759      49.2728 
0.000730565      5.01255     -178.171 
-0.000311455      7.12832      44.2043 
0.000606028      5.38238      162.036 
5.19765e-05      5.54193      117.629 
0.00417319      5.97978     -35.4708 
-8.82541e-05      6.09921      78.6532 
-7.00966e-05      4.22257      166.161 
-1.72931e-05      4.75635     -127.569 
0.00131418      5.44077     -155.225 
0.00216838      7.47821      46.8965 
0.000143099      6.49527     -38.6874 
-5.27655e-05      4.63303     -24.0755 
-3.48819e-05      4.76056      34.9920 
0.000233439      6.36270      124.240 
-3.50425e-05      3.80033     -175.775 
-1.74291e-05      3.67485     -137.978 
-1.75000e-05      4.75042      137.816 
-0.00958520      7.82183      130.021 
0.000338324      5.03064      132.986 
0.00137631      6.15365      75.2185 
-0.000567510      5.23261     -135.155 
-8.96259e-05      5.18768     -160.168 
3.55579e-05      6.14486      45.3297 
-5.36689e-05      4.16005      25.3331 
0.000442655      5.71098     -153.704 
-0.000264053      4.76630      35.0905 
-0.000857017      7.76377      51.9049 
0.00601697      5.37930      162.138 
-0.000133868      6.90456      58.8655 
0.000340046      5.84966      46.4546 
-5.39916e-05      3.79036     -175.764 
-0.000181477      4.44347      165.401 
-7.23408e-05      5.54823     -148.487 
7.30758e-05      4.88016    -0.469627 
-0.000218797      5.61200     -24.4186 
-0.000242731      4.21048      166.261 
-0.000822070      5.36646     -161.869 
-0.000689212      5.61014     -136.806 
-5.41129e-05      5.01081     -42.5737 
0.000128223      4.26354     -162.670 
0.00154580      7.37456      130.711 
-0.000191815      4.97009      179.654 
-0.00247596      5.03289      175.898 
-3.62410e-05      4.62391     -24.1260 
9.22568e-05      4.47725      152.462 
-0.000314987      5.49255      156.843 
0.00702408      5.37287      17.9966 
0.00315938      5.75167      27.3224 
-0.000459387      2.89933     -40.9443 
9.31493e-05      4.14654      117.739 
-0.000169558      5.00405     -42.4893 
3.67593e-05      5.79835     -142.498 
-0.000112532      4.53635      25.0398 
-0.000299581      7.81540      129.965 
-7.50672e-05      4.65679     -14.4242 
-3.71393e-05      3.78038     -175.752 
-5.59811e-05      2.89178     -41.0741 
-0.000114779      4.60977     -24.3411 
-0.000799204      5.97144     -34.0094 
0.000631439      4.30890     -32.1040 
0.000171605      5.79042     -142.437 
0.00480602      6.16805     -143.372 
0.000100123      3.30553     -60.2551 
-0.00190315      5.61614     -24.5115 
0.00232453      4.95965      8.11377 
-0.000298521      6.48535      69.1337 
-0.000139281      4.79296     -32.9938 
-0.000164904      6.09725      78.7454 
0.000235417      4.27309     -162.710 
0.000545334      7.51192      54.4269 
-0.000154671      4.45315      165.433 
7.65557e-05      6.36834      124.314 
-3.81142e-05      3.77041     -175.741 
-0.000125368      4.85298      2.00748 
-0.000436171      5.47943      156.898 
0.000140630      6.48746     -38.7426 
1.90458e-05      6.15189      45.2634 
0.000261253      4.84846      152.484 
3.85201e-05      4.87016    -0.470591 
-0.000407526      5.21138     -135.078 
-1.92427e-05      5.56435     -34.6040 
0.00101539      5.56008      117.763 
-0.000123014      4.64711     -14.4549 
-7.86014e-05      4.54542      24.9864 
1.93568e-05      4.41322      120.051 
0.000219875      5.94479      129.608 
-0.000263140      3.73472      119.517 
0.000802167      5.02255     -178.174 
-1.95613e-05      3.75971     -175.882 
-1.95965e-05      4.19839      166.361 
0.00188673      3.26497      13.0998 
-1.96822e-05      7.12299      49.6692 
-0.000188076      5.00345     -42.6511 
-0.000209060      4.20811      166.393 
-0.00526997      7.13530      44.2618 
-8.35686e-05      4.07922     -48.1798 
0.000272535      5.78250     -142.377 
-0.00201807      6.02634     -144.728 
0.000141717      6.99629      43.3204 
-8.32493e-05     0.909560      14.6474 
-0.000187532      4.46282      165.466 
-6.17283e-05      3.74973     -175.871 
-0.00233314      5.04287      175.906 
-0.000196932      6.26844      142.454 
0.000125043      4.42910     -158.823 
2.03179e-05      3.54316     -30.9083 
-0.00136762      5.22552     -135.078 
-4.09597e-05      1.61075      102.915 
0.000304068      5.03746      133.069 
-6.27155e-05      4.54059      25.1541 
2.05241e-05      5.85655      46.3837 
-0.000132600      7.11652      49.7305 
-0.00207846      5.48862      156.938 
-8.46120e-05      4.75812      35.1597 
-0.000669520      4.88669      5.99060 
0.000534342      5.95887      129.621 
0.000414456      6.98902      43.3767 
-8.49761e-05      6.91313      58.9083 
8.46871e-05      5.87069      46.3804 
-2.07844e-05      3.73021      62.5419 
2.08497e-05      5.95117      129.682 
8.50376e-05      4.28264     -162.750 
-0.00125105      5.63157     -136.871 
4.22981e-05      4.97403      163.532 
-4.24253e-05      1.60854      102.567 
-6.42194e-05      4.98009      179.655 
-6.48343e-05      5.11023      13.9275 
0.000443439      6.47967     -38.7979 
6.43581e-05      5.71542     -153.614 
-0.000261246      3.72602      119.592 
-0.000132895      3.73976     -175.860 
0.000601837      6.15621      75.1285 
-0.000196658      6.11756     -139.043 
0.000517905      4.96444      163.500 
0.00342498      5.23780     -12.6831 
-0.00764467      6.58921      39.1487 
-0.000882606      5.35696     -161.836 
0.000202836      4.43842     -158.870 
0.000277050      6.09381      123.012 
-8.83923e-05      6.89940      58.9366 
-0.000783768      5.88049      41.4151 
7.57406e-05      4.72166      160.836 
-0.000910181      4.54965      25.1006 
-0.000878951      5.98264      148.116 
-0.000111684      6.65920      140.117 
-6.90720e-05     0.912140      15.2551 
-0.000508294      4.98016      179.540 
0.000182995      4.37197     -10.4103 
-0.00105513      6.25979      40.0751 
-9.07164e-05      2.90689     -40.8151 
-0.000515988      6.12511     -139.104 
2.22479e-05      7.54192      128.161 
-0.000210369      5.10053      13.9545 
-0.000165726      4.84298      2.01163 
0.00157464      6.98863      43.4926 
-0.000235791      6.90797      58.9793 
-0.00146483      4.11418     -108.127 
-0.000120041      4.65431     -14.3050 
0.000236224      5.77458     -142.316 
-0.000146424      4.47250      165.498 
-6.90962e-05      4.19605      166.494 
0.000118215      7.54810      128.221 
0.00209627      7.38215      130.660 
0.00320325      5.44985     -155.269 
0.00102031      5.03254     -178.178 
-0.000877369      6.66688      140.172 
0.000169053      4.29219     -107.211 
0.000122727      5.66626     -46.6447 
-0.000794561      5.96315     -34.0631 
-0.000175766      6.09531      78.8375 
-0.000170478      3.72979     -175.849 
-0.000223560      7.11006      49.7920 
-0.000146954      2.90795     -40.5372 
-0.000570466      4.55871      25.0473 
-0.000227531      4.20577      166.525 
-0.000149005      5.97415      148.066 
-0.000899252      7.76995      51.8469 
0.000252650      4.44775     -158.916 
0.000486115      7.51775      54.3649 
0.000557746      4.38180     -10.3867 
0.00445317      6.31476      35.9807 
7.57983e-05      5.62882     -35.8927 
-0.000840815      4.87674      6.00286 
-0.000887060      6.13267     -139.166 
-0.000473794      4.99016      179.541 
0.000254587      5.44832     -20.2976 
-2.47438e-05      5.36336     -161.970 
-0.00275018      5.08842      13.8724 
0.00110153      5.98793     -35.4153 
0.000386180      6.83814      55.1247 
0.000348717      5.76667     -142.256 
-0.00294470      5.35385     -161.937 
-5.13199e-05      4.39364     -17.0740 
-0.000352579      5.62659      25.6998 
2.52735e-05      4.69221     -31.0475 
0.000483107      6.09089      123.142 
2.53615e-05      4.84009    -0.355135 
-0.000158550      6.90282      59.0505 
5.28285e-05      7.55429      128.281 
-0.000360556      6.26745      40.0163 
0.000434525      4.70078     -30.9847 
0.00224054      4.95486      163.467 
5.20263e-05      4.29516     -107.338 
-0.000255050      2.91556     -40.4095 
0.000159592      6.48121     -38.6736 
-0.000134530      5.61331      39.3612 
0.000332956      6.54000      56.6015 
2.65099e-05      2.45177      123.690 
0.00213772      5.45180     -20.3961 
0.000398825      4.30174     -107.171 
-0.000139690      3.71981     -175.838 
-0.000259583      7.11770      49.8440 
5.41063e-05      4.83009    -0.355870 
-0.000791216      4.83299      2.01579 
-0.000323062      4.38408     -17.1123 
0.00110964      5.75627      27.4108 
0.000621124      5.04254     -178.182 
-0.000230833      4.19372      166.626 
0.000139575      4.45708     -158.962 
5.58862e-05      5.04429      133.152 
2.74441e-05      5.67313     -46.5713 
0.00111791      6.47341     -38.7289 
0.000368232      7.64618      48.7647 
0.000146896      5.96525      129.695 
-2.77261e-05      3.73097      119.726 
-0.000858509      5.87300      41.4796 
0.000303053      2.81585      128.946 
-0.000358958      5.60558      39.4260 
2.79843e-05      5.52794     -31.7637 
0.000291034      7.88242      129.182 
0.000209483      5.36675      116.088 
-0.00104111      5.95487     -34.1170 
2.86217e-05      4.82004    -0.237740 
0.000317340      5.53644     -31.7092 
0.00202917      5.75877     -142.195 
0.000212478      4.46285     -159.128 
0.000185689      5.56475      117.854 
-0.00161885      5.62029     -24.6043 
-0.00211789      6.14024     -139.227 
-0.000517584      5.34746     -161.802 
-0.000435024      4.04085     -174.177 
0.00214567      5.05223     -178.299 
2.95504e-05      6.09636      123.221 
-0.00492053      7.82826      130.077 
0.00135246      4.39164     -10.3632 
9.13009e-05      4.30471     -107.298 
-0.00219402      4.86680      6.01517 
-0.000253614      5.52480      129.713 
0.000457562      6.84387      55.0560 
-0.000404393      6.09003     -37.0581 
-3.02731e-05      6.24649      142.415 
0.00148532      7.88874      129.238 
-0.000516117      5.99113      148.167 
0.000429370      6.54551      56.5284 
0.00117258      7.38867      130.719 
0.00218692      5.22337     -23.2274 
0.000680719      6.98175      43.4330 
-0.000166457      7.11126      49.9056 
-3.12436e-05      4.11730     -108.259 
-0.000697826      4.82300      2.01997 
-0.00401982      6.08206     -37.1148 
-0.000331341      6.03451     -144.782 
-0.000423906      7.82706      130.180 
-0.000485220      5.59786      39.4911 
3.21923e-05      5.37115      116.183 
-0.000346989      4.37453     -17.1509 
0.000324748      7.52358      54.3030 
-6.72577e-05      2.92318     -40.2824 
-0.000799357      4.03091     -174.162 
0.000379608      5.37624      162.239 
0.000214078      4.47219     -159.174 
0.000402127      5.35777      116.135 
6.83005e-05      2.80957      128.787 
-0.000522939      5.51841      129.633 
-0.00170543      4.99025      179.426 
0.000180898      4.81004    -0.238234 
-0.000394868      5.99963      148.217 
0.00132580      6.22874      144.013 
-3.46570e-05      4.18169      166.728 
0.000253642      4.94975      8.13010 
0.00108793      5.56087     -157.031 
0.00110334      6.47497     -38.6045 
-0.00224782      5.37908     -18.1992 
0.00144092      7.52160      132.899 
0.000481756      2.80808      129.074 
3.54153e-05      5.56943      117.945 
-0.000113178      6.23857      142.359 
0.000275108      3.25523      13.1397 
0.000906690      6.98138      43.5490 
7.45256e-05      4.31723      19.4842 
7.27583e-05      6.55103      56.4555 
-0.000112310      5.64895      25.7032 
0.00337831      5.06222     -178.302 
0.000599441      5.24001     -12.7897 
-0.000745269      5.94660     -34.1711 
0.00163184      7.38974      130.610 
-0.000396136      6.24570      40.0640 
0.000199676      6.84960      54.9874 
-0.000199484      6.44224      142.632 
-0.000565237      5.49783      156.979 
-0.000527572      6.14782     -139.288 
0.000607789      6.54270      56.4071 
-0.000272028      5.59014      39.5562 
-0.000721500      5.12001      3.58332 
-0.000194143      4.03193     -174.021 
-0.000527178      6.01868      31.8944 
-0.000113905      6.00814      148.268 
-0.000507682      5.86551      41.5443 
3.80079e-05      5.09439      141.375 
-0.000278069      4.37159     -17.0256 
-0.00158960      6.02190      148.237 
-0.000935913      6.75305      134.580 
0.000117514      4.80004    -0.238730 
0.00232489      6.30889      35.9072 
0.000857135      4.94527      163.434 
-0.00109055      5.62446     -24.6969 
-0.000297651      5.21845     -135.000 
0.000656482      4.80001    -0.119366 
-0.00159794      7.82061      130.125 
-0.000166890      4.78553     -17.2612 
0.000307325      7.52942      54.2412 
8.39896e-05      4.48154     -159.220 
-4.08773e-05      5.60422      39.5699 
-0.000934212      4.02096     -174.148 
-0.000577261      5.59652      39.6352 
0.000934879      6.46716     -38.6598 
4.21513e-05      6.08800      123.272 
-0.000268712      4.36203     -17.0641 
-0.000260675      5.94098     -34.0913 
0.000180365      5.36218      116.231 
-0.000130167      6.23805      40.1231 
4.28763e-05      5.11626      141.428 
0.000679674      6.97450      43.4895 
-0.000225030      5.51204      129.553 
-0.000223462      6.23065      142.302 
-0.000132652      4.82038      146.079 
-0.000275275      4.79508     -17.2257 
9.09072e-05      5.75087     -142.134 
-0.000412902      6.02397      31.9751 
4.38038e-05      4.30781      19.5286 
8.97621e-05      6.54824      56.3342 
0.000229230      7.89507      129.295 
-0.000368484      5.93271     -34.1454 
-4.50753e-05      5.50703      157.020 
0.000137745      5.25061     -152.801 
-0.000185236      4.82869      146.145 
0.000560538      5.07193     -178.418 
0.000185329      5.11431     -2.35330 
-0.000137882      6.16192     -139.278 
-0.000185510      5.52015      156.965 
0.000187981      6.17608     -143.427 
-4.61401e-05      6.42028      142.595 
0.000140379      6.53992      56.2856 
9.46452e-05      5.12828      133.499 
0.000142108      5.07222     -178.305 
-4.71751e-05      5.21138     -134.922 
-9.53236e-05      6.15435     -139.217 
4.79128e-05      6.85534      54.9190 
