! Center RA: 22 32 36.40891,  Dec: +11 43 50.90405 (2000.0)
! Established model.
! Flux (Jy) Radius (mas)  Theta (deg)  Major (mas)  Axial ratio   Phi (deg) T \
! Freq (Hz)     SpecIndex
  0.441410      0.00000      0.00000 
 0.0957121    0.0282843      135.000 
 0.0169393    0.0565685      135.000 
 0.0270976    0.0282843     -45.0000 
 0.0506182    0.0848528      135.000 
 0.0788240    0.0565685     -45.0000 
0.00229356     0.113137      135.000 
 0.0755551     0.100000      126.870 
 0.0576636    0.0447213     -63.4349 
 0.0345674    0.0894427      116.565 
 0.0271963    0.0400000     -90.0000 
 0.0176687    0.0824621      104.036 
 0.0155469    0.0447213     -116.565 
0.00987587    0.0800000      90.0000 
0.00548773    0.0824621      75.9637 
0.00884311    0.0565685     -135.000 
0.00130003    0.0894427      63.4350 
0.00333339     0.100000      53.1301 
0.000163457     0.128062      141.340 
0.00635934     0.905097      135.000 
 0.0114039     0.596657      140.440 
0.00181705     0.919348      134.119 
0.00292750     0.891067      135.909 
 0.0151906     0.581378      139.185 
0.00739665     0.947629      134.145 
0.00481418     0.891964      137.726 
 0.0183957     0.382099      132.879 
0.00341238     0.893756      139.538 
 0.0166349     0.962081      133.315 
 0.0111830     0.909065      140.356 
0.00236709     0.584123      141.953 
 0.0241968     0.367696      135.000 
 0.0241469     0.672309      149.621 
0.000362461     0.781025      129.806 
0.00107058     0.924554      141.147 
 0.0214558     0.768375      128.660 
0.00303757     0.960208      144.324 
0.000994366     0.566392      137.862 
0.000667010     0.940213      141.911 
0.00666465     0.976524      145.008 
0.000316820     0.551725      136.469 
0.000625391     0.956033      142.651 
0.00179514     0.565685      135.000 
0.00145045     0.972008      143.366 
0.00316355     0.551725      133.531 
 0.0212245     0.988130      144.058 
0.00851044     0.976729      132.510 
0.00353366     0.538145      131.987 
 0.0132611     0.524976      130.365 
0.00574243     0.990353      133.363 
0.00208830     0.752861      129.611 
0.00447077      1.04995      139.635 
8.49252e-05     0.763675      135.000 
0.00110837     0.749667      133.919 
0.000386019     0.963328      131.634 
0.00109345     0.865332      123.690 
0.00445341     0.733485      115.866 
 0.0103877     0.724983      114.444 
 0.0106438     0.706824      115.115 
0.000105241     0.715542      116.565 
0.00122579      1.16619      149.036 
0.00189406      1.17337      150.376 
0.00664608     0.480833      135.000 
0.00130774      1.03479      131.082 
0.00938611      1.32575      146.070 
0.00566868      1.02176      130.236 
9.10946e-05      1.19080      150.852 
0.00242380      1.21655      152.592 
0.00282982      1.23434      153.020 
0.00148365     0.495177      133.363 
0.00285797      1.02450      128.660 
0.000232325      1.22066      145.008 
0.00148961     0.495177      136.637 
0.00193336     0.524976      130.365 
0.000955444      1.20433      144.462 
0.00123786      1.00896      129.369 
0.00182069      1.25220      153.435 
0.00104741      1.35351      145.840 
0.00100001      1.01213      127.776 
-0.00146506      1.37011      146.310 
0.000393711     0.512250      141.340 
0.000282257      1.02801      127.093 
0.00255872      2.41346      145.125 
0.00214780      2.40865      144.462 
0.000726218      2.39240      144.184 
0.00103370      2.42990      145.394 
0.000216209      2.37622      143.902 
0.00190024      2.25229      142.214 
0.00105936      2.44639      145.660 
0.00150738      2.46293      145.923 
0.00235895      2.26460      141.814 
0.00109548      2.47952      146.182 
0.000243634      2.48516      146.821 
0.00859507     0.451221      167.196 
0.00162064     0.721110      160.560 
0.00423362      1.75568      132.230 
0.00241210      1.09142      166.218 
0.000730683     0.702282      160.017 
0.000272322     0.728011      159.075 
0.00390724      1.10635      167.471 
0.00317981     0.709366      158.499 
0.00196392     0.980816      159.717 
5.63218e-05      1.81571      130.533 
0.00130546      1.83096      130.126 
0.00177767     0.447214      169.695 
0.000107289      1.72743      132.184 
0.00118708      1.74092      132.672 
0.000158803      1.81813      129.644 
0.000473986      1.83358      129.245 
0.000392653      1.82099      128.758 
0.000158259      1.81041      135.895 
0.00105621      1.64924      129.094 
0.00118632      1.84196      131.479 
0.000735665     0.969330      158.199 
0.00135776      1.14978      139.939 
0.00270680      1.63377      129.536 
4.92649e-05     0.505964      108.435 
0.00116446     0.950789      157.751 
0.00106948     0.512640      110.556 
0.00317463     0.793221      123.690 
0.00126278      1.85699      131.070 
0.000259204     0.962081      159.305 
0.000667081      1.16825      141.953 
0.00124871     0.943398      158.875 
0.00226052     0.528394      119.476 
0.000502419      1.16516      140.572 
0.000392358      1.85526      131.941 
3.28255e-05     0.494773      104.036 
6.29797e-05     0.490306      101.768 
0.00133517     0.932309      157.286 
8.88479e-05     0.486621      99.4623 
0.000798950      1.84391      130.601 
0.00115848      1.18406      142.549 
0.000882887     0.483735      97.1250 
0.000704534      1.11803      137.175 
0.00117371     0.782304      122.471 
0.000278822     0.470744      167.735 
0.000745094     0.494773      165.964 
7.11071e-05      1.86869      132.397 
0.000234686     0.924770      158.429 
0.000402824      1.20000      143.130 
0.000258598      1.86762      133.264 
0.000774737     0.913893      156.801 
0.00170300     0.974064      160.821 
2.46631e-05      1.10345      136.469 
0.00460523      1.64839      144.382 
0.00103975      1.64268      137.961 
0.00438686     0.377359      122.005 
0.00321269      1.65759      138.424 
9.29870e-05     0.388330      124.509 
0.00131789      2.12659      148.851 
0.00188905      2.09914      149.036 
0.000188593      2.08701      140.054 
0.000309531      2.06466      141.687 
8.89273e-05      2.09990      139.635 
0.000511887      2.08471      139.279 
0.000121851      2.08038      142.028 
0.000195852      2.18156      148.496 
0.00263897      2.06814      142.465 
0.000242072      2.19208      148.050 
0.000451125      2.06785      138.136 
0.00119870      2.20907      148.325 
0.00180708      2.05300      137.764 
0.000220699      2.05456      148.941 
0.000332751      2.21964      147.885 
0.000207184      2.07171      149.226 
0.000684968      1.84174      124.380 
4.50842e-05      1.84716      123.518 
0.000130143      1.83619      122.998 
0.000244300      1.81835      119.667 
0.00194207      1.80854      119.116 
0.00126804      1.85311      124.891 
0.000352043      1.15603      142.734 
0.00276441      1.64438      138.945 
0.00171351     0.895545      156.297 
0.000549369      2.11518      139.986 
6.82948e-05      2.09781      138.865 
0.000129034      2.08279      138.504 
0.00896264      1.17201      143.326 
3.09061e-05      2.06649      137.353 
0.000366902      2.05183      136.975 
0.000755222      2.11783      140.749 
0.00163679      2.03725      136.591 
0.00115740      1.86462      125.395 
0.00155048      2.12085      141.509 
0.000465395     0.877269      155.772 
0.000596908      1.17644      144.689 
0.000458024     0.992975      161.200 
0.000666282      1.64657      139.927 
5.07031e-05     0.885664      154.592 
0.000503457      1.87627      125.893 
0.000446315     0.867640      154.026 
0.000210094      1.82603      118.811 
3.99990e-05      1.18152      146.041 
0.00348850      2.78891      132.384 
0.00263285      2.36812      127.451 
0.00269044      2.35032      132.241 
0.000357404      2.80371      132.109 
0.000337262      2.80528      131.532 
0.000370680      2.33692      131.878 
0.00119584      1.89251      125.538 
0.000172578      1.88807      126.384 
0.000234222      1.90000      126.870 
0.00120699      1.85300      122.661 
0.000913900      1.91207      127.349 
9.11270e-05      1.89621      127.716 
0.00141733     0.121655      80.5377 
-0.000858153     0.120000      0.00000 
0.00475039     0.172046     -35.5377 
-0.00115927    0.0447214      153.435 
-0.00500831     0.140000      0.00000 
0.000984513     0.120000      90.0000 
-0.000607758    0.0632456      161.565 
-0.000694076    0.0824621      165.964 
0.00188389     0.107703      68.1986 
0.000817568     0.101980      78.6901 
0.00141957     0.184391      139.399 
-0.00462117     0.101980      168.690 
-0.00126138     0.121655      170.538 
-0.000267174     0.128062     -128.660 
0.00173256     0.161245     -29.7449 
-0.00260397     0.116619     -120.964 
0.00798815     0.100000     -143.130 
-0.00174054     0.197990      45.0000 
0.00112839     0.172047      144.462 
-0.00447209     0.107703     -111.801 
0.000341747     0.116619      59.0363 
0.00127652     0.113137      45.0000 
8.13619e-05     0.128062      38.6598 
0.00122488     0.398497      162.474 
-0.00429528     0.689638      106.858 
-0.00391401     0.950158      139.268 
0.000311843     0.814371      155.323 
0.000373373     0.310484      104.931 
0.000833793     0.735935      137.203 
-0.00169369     0.937230      140.194 
0.00231774     0.832346      125.218 
0.000652144     0.721388      136.123 
0.00107158     0.707107      135.000 
4.90844e-05     0.733485      154.134 
0.000539177     0.316228      108.435 
0.00222962     0.260000     -22.6199 
0.000911267     0.693109      133.831 
0.000110793     0.670820      153.435 
-0.00143184     0.632456      108.435 
0.000121320     0.652993      152.650 
0.00113527     0.263059      81.2538 
-0.00251553     0.596657      140.440 
0.000318171     0.590593      151.699 
0.000221581     0.323110      111.801 
0.000678912     0.612209      128.367 
0.000333626     0.573062      150.751 
-3.38947e-05    0.0199999      0.00000 
0.00207574     0.867640      115.974 
0.00199898     0.820975      124.077 
-0.00138109     0.921955      139.399 
-7.96680e-05    0.0400000      0.00000 
0.000182450     0.331059      115.017 
0.000384509     0.555698      149.744 
0.000727787     0.750733      138.240 
-7.63232e-05    0.0600000      0.00000 
0.000899880     0.121655      99.4623 
-0.000823841      1.35912      147.011 
-0.00249340     0.935094      138.468 
-5.90936e-05    0.0799999      0.00000 
-7.19620e-05     0.100000      0.00000 
0.000400489     0.967678      161.940 
0.000152709     0.340000      118.072 
0.000638306     0.624820      129.806 
0.000367279     0.538517      148.671 
6.70992e-05     0.765768      139.236 
0.000700397     0.768375      141.340 
0.000103388     0.349857      120.964 
-0.000217366     0.160000      0.00000 
0.000366563     0.637809      131.186 
-0.00122631      1.34833      147.724 
-6.16530e-05      1.26254      139.497 
-0.00248057     0.612209      141.633 
0.000121002     0.360555      123.690 
0.00111963     0.241661     -24.4440 
9.69906e-05     0.752861      140.389 
0.000398356     0.521536      147.529 
-0.000203751     0.180000      0.00000 
-0.00109478     0.388330      101.889 
-0.000121598      1.27781      140.080 
0.000160336     0.372022      126.254 
0.000409774     0.126491      108.435 
-0.000102760     0.240832     -4.76363 
0.000316558     0.961665      163.072 
-1.12986e-05     0.297321      137.726 
-0.00113302     0.282843      135.000 
-0.000749669     0.220907     -5.19441 
0.000175336     0.384188      128.660 
0.000492902     0.504777      146.310 
0.000189320     0.396989      130.914 
0.000448160     0.134164      116.565 
-9.24973e-05      1.04995      130.365 
0.000456076     0.784092      142.253 
0.000497599     0.600000      126.870 
0.000142473     0.410366      133.025 
0.000280856     0.956033      164.219 
-4.95236e-05      1.29321      140.648 
-0.000451366      1.03711      129.523 
0.000207575     0.424264      135.000 
0.000543920     0.837616      123.311 
0.000387530     0.144222      123.690 
0.000305173     0.438634      136.848 
0.000149909     0.549181      123.111 
-9.33067e-05      1.30874      141.203 
2.80512e-05     0.379473      161.565 
9.45742e-06     0.488262      145.008 
0.000203665     0.453431      138.576 
-1.83153e-05     0.639062      110.136 
9.13764e-06     0.800000      143.130 
0.00198759      5.89847      157.261 
0.00256034      6.35610      61.0154 
0.00175503      6.08763      78.2471 
0.000237170     0.975295     -61.8584 
0.00218924     0.984886     -60.8324 
0.00250683      3.02238      75.0442 
0.000685046      1.95489      41.6822 
0.000517815      4.76609     -44.4900 
-0.000824340      4.56509      155.681 
0.00194931     0.903549      62.3005 
0.00256894      4.78079     -43.9830 
0.00199162      2.74591     -47.3614 
0.00109838      6.08358      78.4315 
-0.000748396      3.94122     -31.5123 
-0.000852426      1.19080     -97.7218 
0.000584851      1.94000      42.0750 
0.00171677      1.22000      180.000 
0.000899630      5.91692      157.335 
-0.000502164      2.29103     -135.000 
0.00111335      3.66366      100.697 
-0.00167728      3.02840     -77.7995 
0.000289589      5.03746      169.939 
0.000541573      6.22832      151.624 
0.000288327      6.10554      87.5594 
0.000117276      4.76592     -44.8300 
0.000488248      4.07470     -103.627 
0.00127028      1.90032      49.2679 
-0.000366959      5.39637     -175.536 
-0.00110502      2.43187     -121.206 
-0.00120678      3.95828     -31.3609 
0.00164742      6.36581      60.8580 
-5.72555e-05      5.38628      92.7668 
-0.00180269      4.53863      155.807 
-0.00109403      6.28500      127.891 
0.000165324      4.76592     -45.1700 
-0.00227144      3.57844     -124.756 
-0.000917591      1.46164      163.301 
-0.000897638      5.38728      92.9792 
-0.000323590      5.53888     -140.274 
-0.000372056      1.20814     -96.6544 
0.00180221      5.05715      169.979 
0.000362313      2.44008     -157.850 
-0.000416784      4.41565     -150.416 
0.00117668      4.73730     -124.160 
-0.00111145      5.12141      133.418 
-0.00109636      6.11101      139.114 
0.00165552      6.10472      87.7469 
-0.000207815      5.42059     -137.243 
-0.000524725      1.74195      12.6002 
-0.000674447      5.37643     -175.520 
0.00133458      3.48832      59.3179 
-0.000618072      6.34691     -141.397 
-0.000426104      7.49947      139.001 
-0.000769478      5.43529     -137.386 
0.000270502      1.29692      63.4349 
0.000482974      5.02096     -44.1931 
-0.000961120      5.52351     -140.141 
0.000835955      4.23986      172.137 
-0.000722628      3.54401     -143.259 
-0.000715367      1.21062     -97.5946 
4.93101e-05      1.05773      74.6499 
-0.000190946      6.64072      114.558 
0.00179167      1.97909      165.964 
0.000559505      1.47364     -172.200 
4.84417e-05      6.98936     -146.674 
0.000234804      1.05262      75.6997 
0.00108973      4.20595     -114.737 
-0.00122239      4.97425      77.6961 
0.000579137      1.28810      64.2307 
-0.000597022      4.39827     -150.287 
0.000181598      4.05527     -103.694 
-0.00120322      3.18025      66.6595 
0.000596699      6.24593      151.712 
0.000994019      3.00307      74.9457 
0.000303530      6.97266     -146.583 
0.000379024      5.45241      114.027 
0.00256538      6.06000      78.5788 
0.000519313      4.88336     -162.604 
0.000387883      2.76384      26.1942 
0.000500632      2.12000      0.00000 
0.000265931      1.46711     -152.387 
-0.000825494      6.63244      114.401 
4.51098e-05      4.66648     -141.263 
0.00214274     0.992975     -62.4027 
-0.000703636      2.72918     -56.6593 
0.000780846      1.04786      76.7595 
-0.000540344      1.80278      19.4400 
0.00100133      5.03532     -44.0344 
-0.000368391      3.04611      48.4602 
-0.00203961      7.90759      140.027 
-0.000556998      6.76062      120.586 
-0.00109807      3.78867     -55.9744 
0.000886399      2.80492      10.2683 
-0.00127612      2.74372     -82.4606 
0.000791839      5.44430      113.834 
0.000385812      2.57379      50.9925 
-0.000283102      5.35496     -175.716 
-0.000622869      6.33445     -141.538 
-0.000599793      6.02730      71.6252 
0.00111608      5.52007     -145.331 
-0.000435122      5.36731      92.9903 
0.000586702      1.65711     -150.341 
-0.000807534      4.61671      168.252 
0.000472620      1.01272      80.9097 
0.000508024      2.96432     -93.0941 
-0.000937964      2.40441     -121.045 
0.00182463      4.72055      33.4208 
0.000875718      5.78584      87.4244 
4.15980e-05      4.03113     -103.485 
0.000475576      1.48486     -152.745 
0.000715206     0.588558     -170.218 
0.00108552      2.85412     -118.002 
0.00191796      2.56320     -73.6861 
-0.00122387      4.49088      70.7581 
-4.07953e-05     0.782304     -57.5288 
-0.000512524      6.29730      128.035 
0.00102156      6.05607      78.7643 
-0.00113715      5.67708      175.555 
-0.00123677      2.23294      173.830 
0.000118009      5.92679      60.9266 
-0.00124285      3.52800     -143.065 
-7.99802e-05     0.832346     -54.7824 
0.00189435      4.00704     -103.273 
0.000498448      2.74591      26.3784 
-0.00120128      5.33502     -175.700 
-0.000770041      4.78682     -48.0484 
0.000365552      5.08193     -178.421 
0.000113887      5.93539      157.410 
0.000193107      2.54849     -8.57523 
-0.000972003      6.09590      138.991 
0.00114237      7.25493      134.888 
-0.000298962     0.844038     -53.6732 
-0.000108984      6.89214      143.496 
0.000465011      1.00975      82.0304 
-0.000183150      4.44059     -49.5666 
0.000321753     0.913017      61.1892 
0.000247860      3.34885      164.055 
7.57074e-05      2.80143      9.86581 
0.000333544      4.89522      161.417 
-0.00225445      4.74105      88.7914 
-0.000685116      2.34828      35.9915 
0.000885511      3.56926     -157.602 
-0.000252223      1.78393      19.6538 
0.000294064      4.46865      159.294 
0.000253199      2.73240     -47.6699 
-0.000313054      5.26881      72.3216 
-0.000143595      1.48661      162.784 
-0.000694046      5.50818     -140.008 
0.000254483      4.98080      106.325 
-0.00219732      4.86958     -38.3291 
0.000590377      3.98301     -103.059 
0.000537985      1.27953      65.0372 
-0.000963286      5.57200     -135.000 
-0.000632188      5.49054     -139.580 
0.000109248      1.77629      35.8377 
0.000376112      2.99546     -124.114 
0.00106277      2.56827     -8.50870 
0.000726639      6.33861      60.9278 
0.000349516      2.76007      89.5848 
-0.000272611      1.34536     -5.11732 
3.66561e-05      3.25263      35.7424 
-0.000470838      5.36839      93.2035 
0.000300684      2.14000      0.00000 
0.000106689      2.78173      9.93639 
0.000282783      1.45382     -172.093 
0.000158908      4.94271      66.1317 
-3.60342e-05      2.65767     -61.6992 
6.93238e-05      6.99514     -146.901 
3.59246e-05      1.78807      36.3572 
-0.000988799      3.55258      172.235 
0.00133685      2.86356     -118.355 
-0.000103842      3.21459      23.8539 
-0.000481324      6.62420      114.244 
-0.00112457      6.75047      120.440 
-0.000138517      1.12872      119.745 
0.000332984      2.96547     -93.4799 
0.000698292      4.44994      159.203 
0.00143873      2.80143     -170.134 
0.000387366      1.77200      36.7406 
0.00174813      4.90163      161.195 
0.000448102      3.95034     -102.277 
-0.000749692      4.05216     -68.8813 
-0.000200943     0.856037     -52.5946 
0.00146303      4.97522      106.104 
-0.000174447      1.76148      12.4582 
0.000129267      4.66965     -141.608 
0.000439145      8.37601      133.258 
-3.44284e-05      6.18750     -158.577 
-6.68614e-05      3.59739      79.7521 
0.00150405      2.78525      10.3416 
-0.00129372      6.16889     -158.509 
0.000317453      7.26906      135.000 
0.000772276      5.76784      104.663 
0.000260188      6.76804      127.073 
-0.000643059      1.13877      120.619 
0.000158051      2.71897     -47.9815 
0.000733545      2.69704     -156.857 
0.000621831      4.27430      132.725 
6.57098e-05      5.95386      157.484 
-0.000158661      1.46752      162.553 
3.32198e-05      3.66000      100.389 
-0.000785861      3.94020     -179.418 
0.000206310      6.25412      151.960 
-6.48388e-05      1.77200      20.4804 
-0.000188110      2.74022     -56.3099 
-0.000738917      4.81506     -48.0305 
0.000897202      2.74000      90.0000 
0.00373368      6.08401     -174.908 
0.000631538      6.05221      78.9500 
0.000950801      5.79227      104.804 
0.000129828      7.23337     -146.046 
-0.000411424      1.01548     -147.875 
0.000184762      7.26911      134.777 
0.000186687      1.20000      180.000 
-0.000123812      3.23289      23.7106 
6.44176e-05      4.92804     -137.961 
-6.22888e-05      1.30752     -6.14662 
3.25089e-05      4.76642     -44.1500 
6.35391e-05      6.28029      145.247 
0.000245336      3.46225     -139.686 
0.000504693      6.71262     -147.162 
9.28354e-05     0.922822      60.1011 
-0.000250144      4.26643     -16.0561 
-0.000658351      3.87675     -5.32823 
6.35782e-05      1.90263      3.01279 
6.37744e-05      5.25224      79.2463 
0.000854965      7.21679     -145.958 
-0.000150564      1.49907     -13.1092 
0.000832483      3.47753     -139.899 
9.33560e-05      3.63676      100.136 
0.000900224      2.99793      75.3148 
-0.000152766      3.79684     -110.344 
0.000362800      2.67642     -99.4623 
0.000140264      4.27181      150.555 
-9.32953e-05     0.868332     -51.5463 
3.15966e-05      2.95330     -121.430 
-0.000154665      4.74152      88.5498 
0.000473801      5.24854      79.4608 
-0.000795319      4.66690      98.1301 
0.000254795      4.22005      172.100 
-6.16386e-05      3.97537     -31.2109 
-0.000595510      4.63629      168.302 
9.27030e-05      2.82064     -91.2189 
0.000181879      2.31041      16.0817 
0.000209573      4.95629     -137.944 
0.000118917      2.58643      50.6483 
0.000541190      5.75701     -156.017 
6.09605e-05      5.06194     -178.415 
0.000118364      2.94292     -121.097 
0.000270820      6.78012      127.208 
0.000261425      3.09968     -70.3959 
-0.000173749      1.47959     -13.2849 
-0.000149929      4.34166      128.454 
8.95589e-05      4.78138     -43.6441 
0.000116220      3.76005     -90.3048 
0.000669369      4.20305      171.793 
0.000291511      2.96675     -93.8655 
-0.000225087      6.08280      139.133 
0.000116240      4.86428     -162.534 
0.000186784      1.88266      3.04478 
0.000370183      1.57632      35.7067 
0.000167378      6.26386      145.143 
-0.000117130     0.880909     -50.5275 
8.58539e-05      3.32962      163.960 
0.000553275      1.45382     -82.0928 
-0.000310322      5.36954      93.4166 
-0.000548356      4.16941     -40.7205 
0.000116917      5.28110      108.778 
0.000145847      5.46772      67.1867 
0.000144457      1.78370     -162.378 
0.000255652      2.16000      0.00000 
-0.00174820      4.26094     -15.7976 
-0.000464852      4.55689      155.910 
0.000246800      3.58776     -157.724 
-0.000271996      3.24154      1.76783 
0.000165584      1.67451     -150.680 
-0.000739183      4.97003      77.9213 
0.000168675      6.10996      150.162 
-0.000248643      3.31747      95.8824 
0.000236567      2.82028     -90.8127 
-0.000112287      6.84809      143.431 
0.000283308      4.92057      161.270 
0.000138840      5.44235      114.305 
-0.000419528      1.73666     -118.926 
5.74150e-05      3.63329      99.8253 
0.000160237      1.52958     -152.765 
-5.79849e-05      1.38809      126.209 
0.000339764      3.48827      86.0548 
0.000319241      3.09561      102.689 
-0.000138637      1.44845      162.316 
0.000430159      2.65669     -99.5332 
-0.000271969      5.04254     -131.785 
0.000707644      2.29120      16.2202 
-0.000737982      2.36034     -90.9710 
0.000478478      5.43415      114.112 
-0.000555002      5.69129     -168.651 
0.000277891      6.79223      127.342 
5.59180e-05      1.18000      180.000 
-0.000191108      4.32925      128.246 
-8.52139e-05      2.31534     -160.313 
-0.000373642      1.40000      126.870 
2.85600e-05      1.00240     -61.3895 
0.000633925      1.80499     -74.5778 
-0.000219235      3.72070     -43.4754 
-2.84655e-05      3.11416      61.6245 
0.000712828      4.28789      132.921 
0.000614209      8.36232      133.159 
-0.00120784      5.69702      175.570 
0.000285654      1.04346      77.8285 
0.000393845      3.95464     -102.560 
-0.000879074      3.51204     -142.869 
-8.22762e-05      4.86921      111.190 
0.000134559      5.28757      108.983 
0.000106197      2.70562     -48.2961 
0.000239733      4.97116     -138.098 
-2.81767e-05      3.25122      23.5688 
-0.00127927      4.48433      70.9994 
-0.000176609      5.47533     -139.444 
-0.000580955      3.12372      61.3017 
-0.000714426      4.07082     -68.9827 
5.45601e-05      2.73708      26.0033 
2.78799e-05      2.93264     -120.763 
-0.00117786      2.54951     -117.570 
-0.000642058      2.21305      173.774 
0.000776127      5.45711      66.9117 
-5.51468e-05     0.893756     -49.5378 
5.43013e-05     0.932952      59.0362 
-0.000101586     0.519230     -74.3578 
-0.000756480      2.29652     -160.145 
0.000298866      4.43125      159.111 
-0.000188270      1.87883      152.071 
-0.00192954      3.53276      172.191 
-5.40140e-05      2.75136     -55.9634 
-0.000245346      4.84384      174.313 
0.000186151      2.96816     -94.2507 
-0.000513073      4.18822     -124.297 
0.00117974      5.26460      79.7146 
0.000131517      2.30417     -126.174 
-0.000450978      6.28156      128.147 
0.000274051      1.54402     -106.557 
-0.000417917      2.17706      10.5873 
-0.000485679      7.76930      129.673 
-0.000491656      5.01442      94.3461 
0.000106367      5.19958      111.433 
0.00474026      7.20022     -145.869 
2.69525e-05      4.04005      37.1535 
-7.91568e-05      5.43783      159.099 
-5.34154e-05     0.891964     -47.7263 
-0.000917300      3.73524     -43.2643 
-5.31939e-05      6.21704      108.377 
0.000845264      3.38851     -175.938 
-0.000128229      4.35178      138.913 
-2.66437e-05      4.58279      55.1309 
0.000319181      6.80438      127.476 
-0.000301670      2.90000      143.130 
2.65437e-05      2.92246     -120.426 
-2.65055e-05      1.39270      125.059 
0.000201109      4.02413      37.3255 
-2.64353e-05      3.49588     -147.856 
-0.000319324      7.62640      133.193 
2.63975e-05      7.25504      134.665 
-0.000286700      3.89667     -5.30093 
-0.000103128      1.42941      162.072 
-0.000227903      4.57139      55.3366 
-0.000153918      5.37077      93.6296 
0.000243557      2.18000      0.00000 
-0.000226441      6.20532      107.442 
-2.61620e-05      6.86417      143.531 
0.000438161      1.56013      36.1354 
-0.000170675      1.09179      118.443 
0.000197932      6.12732      150.255 
-0.000250256     0.905538     -46.7899 
0.00863586      6.82800      53.0965 
5.15198e-05      1.16000      180.000 
-0.000811642      1.89652      152.354 
-0.000176695      5.57832      108.175 
0.000967810      6.37558      60.7010 
0.000709757      3.47816      59.6013 
-0.000148206      3.51283     -148.029 
0.000234112      6.93100      128.557 
-0.000878003      1.40428      125.727 
0.000265283      2.87312     -118.706 
0.00116881      5.94118      129.262 
-2.57671e-05      4.86202      110.970 
-0.000498184      4.82846     -47.8540 
0.00113233      1.45121     -82.8750 
-0.000620758      2.45967      63.4350 
-2.56462e-05      1.08240      117.512 
0.00103181      3.88330     -65.0188 
2.56088e-05      3.62993      99.5142 
-0.000293603      5.45652      159.174 
0.000117881      2.99313     -95.3677 
-7.06557e-05      4.19204      39.3856 
-0.000333467      2.33212      36.2803 
0.000159649      6.91855      128.427 
9.70433e-05      3.08765     -69.9218 
-0.000172213      6.06066      175.268 
0.000821837      4.70956      33.2177 
4.99746e-05      1.98736     -110.624 
0.000379420      2.58805     -8.44319 
-9.82818e-05      4.31690      128.038 
-0.000512782      4.00250     -66.1247 
-4.92772e-05      6.46297      134.875 
-7.39451e-05      2.76261     -55.6197 
-0.000119507      3.01257     -134.193 
-7.33884e-05      6.06234      175.079 
0.000287767      6.72943     -147.255 
-4.96944e-05      6.28986      110.279 
-7.39052e-05      3.83901      145.399 
0.000562794      2.99506     -95.7487 
0.000877606      2.65345     -99.1073 
0.000207878      2.61664      135.929 
0.000343455      3.46624     -136.637 
2.48781e-05      5.20692      111.638 
-2.48223e-05      5.35081      93.6431 
2.47950e-05      5.78678      87.2266 
7.29100e-05      6.29171      145.098 
-7.27629e-05      1.41039      161.822 
0.000420197      4.98209      116.977 
-0.000559508      4.18459     -40.5419 
-0.000140647      1.02215     -149.421 
-0.000416228      5.35212      93.8568 
-0.000189156      5.49927     -175.202 
-0.000374141      3.77614      126.384 
0.000350163      5.41202      99.3579 
-0.000252443      5.02923     -131.615 
0.00122885      5.17212      41.3944 
-9.43223e-05      3.31958      96.2258 
0.000781276    0.0848528      45.0000 
-7.25018e-05      6.29682      110.450 
6.88479e-05      2.69236     -48.6139 
-0.000430984      5.57211      107.980 
-0.000118245      6.32202     -141.680 
-0.000330279      6.14296     -158.614 
-0.000278270      4.56004      55.5432 
2.41295e-05      1.14000      180.000 
-0.000118184      5.64128     -178.781 
-0.000198395      4.50821      142.571 
0.000135735     0.967678     -71.9395 
-2.40309e-05      3.68049      54.0642 
-0.000114840      3.84401     -49.4310 
-0.000136469      3.85549      145.568 
-0.000138596      6.19935      107.266 
0.000181036      1.10018      178.958 
-4.72269e-05      4.33673      138.740 
-9.34112e-05      8.13019      138.191 
-4.71910e-05      6.30384      110.620 
0.000664148      1.51182     -152.418 
-0.000270449     0.919348     -45.8814 
-0.000174724      2.41479     -121.452 
2.35899e-05      3.62668      99.2026 
0.000369076      2.82007     -90.4063 
-4.63203e-05      3.18823      66.3295 
-0.000487170      4.97743      78.6449 
-0.000387806      2.58380     -86.8940 
-0.000689317      4.06369     -69.2459 
-2.33646e-05      4.88786      111.105 
-0.000376738      6.08227      175.096 
0.000240817      2.67866     -156.689 
-0.000154490      6.45963      121.968 
-6.74898e-05      1.78101      12.3194 
0.000237281      5.78429      135.420 
-9.06547e-05      2.77395     -55.2787 
-0.000180057      3.52982     -148.201 
-0.000160249      5.47522      159.248 
-0.000136662      6.31091      110.790 
-0.000217711      3.22155      1.77880 
6.74771e-05      1.96865     -110.829 
0.000344190      2.99713     -96.1291 
2.32119e-05      2.91239     -120.087 
0.000155843      6.24746      145.038 
2.31780e-05      2.29242     -125.770 
0.000907922      7.62955      137.443 
-0.000505253      4.04178     -91.7014 
2.31296e-05      2.52579     -8.19426 
0.000127970      3.48511      162.293 
0.000412677      5.58201      122.267 
-0.000201644      5.66127     -178.785 
6.76851e-05      6.15224      150.602 
-0.000538384      8.12867      137.992 
-0.000503019      5.40592     -137.099 
-2.28148e-05      4.30460      127.828 
-8.97346e-05      4.32005      138.190 
-0.000335097      5.46015     -139.308 
-2.27664e-05      1.39140      161.565 
-0.000476860      6.30635     -141.567 
0.000366188      6.74626     -147.346 
-0.00490991      5.54083     -175.030 
0.000428325      3.48970      85.7272 
-8.89509e-05      7.64010      133.303 
-0.000130900      4.41728     -39.6727 
0.000252776      2.99293      75.6852 
0.000417512      4.30153      133.116 
-0.000713432      5.48689      159.517 
-0.000247135      2.99827     -134.459 
0.000357270      5.41531      99.5667 
-0.000172624      6.31804      110.959 
-0.000228572      3.16057      60.8397 
-0.000232479      5.01597      94.5739 
0.000106794      2.54558     -8.13010 
-0.000107071      6.19345      107.089 
0.000123624      2.82652     -63.9789 
2.19357e-05      2.88278     -119.055 
-0.000128411      4.30516      138.013 
-0.000486673      2.32034      35.8821 
-0.000289000      4.54876      55.7510 
-4.30381e-05      1.37244      161.301 
0.000210372      6.16967      150.693 
-0.000106542      2.78539     -54.9406 
-4.33193e-05      3.94614     -155.123 
2.18247e-05      5.04143     -178.636 
8.20445e-05      4.66052     -131.695 
-0.000268948      3.48402     -142.933 
-0.000125388      3.30430      96.9530 
-0.000409729      7.78208      129.787 
-4.28491e-05      4.95471      145.027 
-4.29635e-05      6.22383      56.0035 
-0.000597211      4.84190     -47.6785 
-0.000251456      5.68127     -178.790 
0.00160118     0.107703      21.8014 
0.000418707      4.96971      105.882 
-0.000801974      7.61183      133.297 
6.32127e-05      4.05216      37.3789 
-0.000468058      5.35350      94.0704 
7.94170e-05      1.80278     -162.570 
0.000407607      3.26644     -105.994 
-0.000166987      3.54683     -148.371 
0.000203219      5.18189      51.5819 
-0.000342590      5.01597     -131.444 
-0.000422479      5.66777     -168.809 
-0.000340939      6.23503      55.8512 
-4.22598e-05      3.70842      53.9953 
-0.000590935      5.74178     -44.7178 
0.000409980      7.25493      135.112 
0.000102240      2.74007      89.5818 
2.12595e-05      5.72189     -138.117 
-2.12355e-05      4.85720     -38.1440 
0.00101381      7.18368     -145.779 
0.000384014      4.25102     -72.7585 
-0.000811626      3.92800     -155.001 
0.00779641      7.11916      54.8366 
-0.000201955     0.933381     -45.0000 
-6.25077e-05      4.66412      97.8869 
0.000120048      1.08019      178.939 
-0.000182083      6.08059      175.283 
-0.00100737      4.47786      71.2414 
7.91708e-05      2.60783     -8.37867 
0.000944040      5.73679     -138.250 
2.09276e-05      3.49044     -139.648 
-0.000358520      5.56597      107.784 
-0.000199816      6.44906      121.817 
-0.000163941      6.32522      111.129 
-0.000120057      4.43270     -39.5077 
0.000156286      2.60277      136.245 
-0.000213137      4.29031      137.834 
-0.000159177      4.97112      145.159 
0.000156090      5.02143     -178.631 
0.000120710      3.45172     -136.409 
-8.10217e-05      6.11182      118.326 
-0.000255294      3.81293      35.6076 
4.11425e-05      5.05446     -137.726 
-0.000294920      6.08082      138.867 
0.000293128      2.67918     -48.9348 
0.000140635      1.60562     -166.310 
0.000213130      1.79744      124.574 
-0.000192218      6.74036      120.293 
-0.000398776      4.72424      177.574 
0.000214053      5.72433      116.565 
4.10131e-05      6.23108      144.933 
-0.000100870      6.18760      106.912 
0.000137598      8.34865      133.059 
0.000157029      2.40416     -8.13010 
-2.05307e-05      3.87200      145.735 
0.000342950      4.72631      33.0849 
-0.000120018      2.79693     -54.6052 
0.000470215      2.82113     -170.204 
4.04902e-05      2.26451     -125.655 
0.000273506      5.59271      122.440 
-3.99700e-05      3.69670      54.2461 
0.000196134      6.05898     -161.326 
-5.89019e-05      4.57515      156.012 
0.000156303      6.76311     -147.438 
-0.000522908      4.99940      95.0492 
-0.000153677      5.86788      64.1336 
3.97367e-05      1.58417      43.9770 
0.000224668      5.06928     -137.878 
-3.96295e-05     0.624820      50.1944 
-7.64047e-05      4.56004     -179.749 
-0.000875639      5.70126     -178.794 
0.00232969      6.48154     -140.760 
0.000155631      5.31688     -165.180 
0.000376710      4.33521      163.655 
0.000288516      5.39559      99.6020 
1.99988e-05      1.99449     -111.161 
-0.000305365      6.43005     -150.565 
-0.000331956      4.62934      137.626 
-0.000225111      3.22099      1.42321 
0.000738207      4.93465      66.3440 
-0.000252976      6.33246      111.297 
-0.00107683      4.72106      88.7863 
9.75280e-05      2.16675     -113.962 
0.000525445      2.82000     -90.0000 
-5.92795e-05      3.56387     -148.540 
-0.000386452      2.27772     -159.974 
-0.000169000      4.17698     -124.071 
-0.000460237      3.78803      126.628 
-0.000219559      4.27551      137.654 
0.000279758      4.61307      166.205 
-0.000184322      3.30678      97.2969 
0.000340199      3.71139      30.4342 
-0.00172050      6.55735      64.5291 
-0.000258691      3.80384     -110.627 
-0.000567702      3.74897     -43.4869 
-0.000131245      3.36856      4.08562 
-7.71874e-05      3.65666     -149.789 
0.000242200      1.62505     -166.477 
-0.000721692      5.49287     -139.874 
0.000113732      5.30554      174.375 
3.82053e-05      2.20000      0.00000 
5.76957e-05      5.42070      115.809 
5.76299e-05      6.94349      128.686 
0.000153422      4.01168     -103.551 
7.63721e-05      4.73438      103.684 
-0.000152303      4.56530      55.8922 
1.94151e-05      2.30495      15.6039 
-7.59415e-05      3.46808     -142.734 
-0.000348499      7.77956      129.994 
-0.00123832      6.66768      55.8809 
-0.000168826      6.18181      106.735 
-0.000149553      2.80856     -54.2726 
0.000470792      3.76351      6.40744 
0.000150490      6.08329      88.1160 
7.54043e-05      3.49125      161.980 
5.69316e-05      4.32980      133.128 
0.000278577      4.36468      112.923 
0.000618611      4.25699     -72.5015 
-5.70771e-05      2.11102      154.163 
-9.41898e-05      5.65643      169.405 
-0.000452236      5.59003      110.964 
-0.000223902      5.35496      94.2838 
-0.000826866      6.22977      55.5957 
7.64233e-05      7.17245     -145.911 
-0.000219975      4.01064     -65.8635 
-0.000113302      6.65231      143.681 
-0.000112463      4.53753      55.9597 
0.000254726      2.38437     -8.19807 
-0.000255480      3.67396     -149.946 
-0.000350584      1.29692     -109.832 
-0.000386670      4.72068      89.0290 
0.00277160      7.18902     -146.000 
-0.000462890      6.33975      111.466 
0.000463720      3.46808      59.8863 
0.000180553      4.22284     -115.230 
-0.000181464     0.947629     -44.1449 
0.000185200      4.98754     -124.710 
-0.000693925      4.06177     -91.6930 
-7.41782e-05     0.637809      48.8141 
-0.000179524      3.17036      60.5241 
-0.000232673      4.26075      137.473 
-0.000219229      4.98754      145.290 
-0.000588582      4.56232     -172.190 
7.47694e-05      5.33622     -165.235 
0.000182166      5.26821      79.5006 
1.88238e-05      5.18961     -159.470 
1.87932e-05      2.15870     -113.477 
3.73349e-05      6.95600      128.814 
-0.000392391      5.64815     -168.770 
0.000147028      1.40014     -45.5787 
-0.000374698      1.91426      152.632 
-0.000145780      5.55989      107.588 
0.000175531      5.83743      173.508 
-3.71459e-05      4.49235      142.416 
-3.73335e-05      5.00276     -131.272 
1.87149e-05      2.16000      90.0000 
0.000110599      5.75312      172.208 
-7.38846e-05      6.15028     -158.441 
-0.000426276      6.63620      143.579 
-0.000196638      2.12904      154.398 
0.00102870      5.39896      99.8113 
0.000232031      2.66608     -49.2588 
-0.000178059      2.55883     -117.967 
0.000302065      4.98100     -178.850 
0.000143170      5.41202      115.618 
-1.85668e-05      4.45358     -49.3708 
-0.000918053      6.08516     -164.365 
0.000271428      5.89864      46.2364 
0.000125406      4.72969      103.449 
-0.000573565      5.00120      95.2774 
-3.64322e-05      3.96020     -179.421 
-3.66504e-05      2.15741      10.6849 
9.04972e-05      7.01783     -147.216 
3.66358e-05      4.34350      133.321 
5.46449e-05      2.62762     -8.31512 
-0.000230551      5.72126     -178.798 
0.000728564      5.31180     -165.388 
-0.000353125      4.99159     -130.776 
-0.00135665      4.85539     -47.5040 
-0.000126948      5.71853      175.386 
0.000108722      2.23652      115.419 
0.000142295      5.60346      122.612 
-0.000261760      4.46663     -49.1761 
7.22496e-05      6.96856      128.942 
0.000298948      2.76557      10.4160 
-0.000141598      3.26497     -170.480 
-0.000179818      4.55412      56.1006 
0.000438120      6.06330      88.1097 
5.35495e-05      2.22000      0.00000 
0.000208781      3.08084     -70.2711 
-0.000107505      5.63677      169.368 
-0.000365896      6.41264     -150.477 
0.000762308      6.77997     -145.091 
0.00186623      3.72865      30.2786 
-0.000191628      3.69129     -150.101 
-5.31886e-05      3.65754      41.0091 
3.59574e-05      1.82187     -162.759 
8.88061e-05      5.95386      129.411 
0.000264198      7.98338      132.563 
-0.000107002      5.50563      159.590 
8.88839e-05      3.51027      162.081 
-0.000565013      6.34709      111.634 
0.000350094      5.75044      172.405 
-0.000193990      3.22490     -97.1250 
0.000140063      4.88270      161.120 
-0.000417730      5.33502      94.2999 
-7.08804e-05      4.01642      103.829 
-5.29792e-05      2.41205     -142.750 
0.000211874      6.75873     -144.758 
5.29613e-05      4.97305      116.771 
-5.34324e-05      2.82028     -53.9428 
-0.000210202      4.24603      137.291 
-0.000226838      4.92751     -173.942 
-3.56221e-05      6.17608      106.557 
0.000210629      2.63370      9.17620 
-0.000105538      3.48144     -178.354 
0.000175425      4.99896     -124.898 
-0.000417588      5.69860      175.370 
0.000295969      1.41421     -45.0000 
-5.32587e-05     0.664831      43.7811 
0.000239008      6.38539      60.5445 
-6.99972e-05      6.29393      128.290 
-5.32377e-05      4.06123     -91.4109 
7.02876e-05      4.71024      103.505 
-1.78794e-05      5.41479      138.894 
3.55288e-05      5.90339     -145.072 
0.000516124      2.22800      114.955 
3.55068e-05      2.17862      74.5604 
8.67639e-05      4.35693      112.681 
-1.77863e-05      5.72758     -44.8585 
0.000731239      7.59908      137.026 
3.52470e-05      5.73875     -155.936 
-0.000139900      6.10262      59.9058 
-0.000936080      4.24170     -15.8712 
-3.49595e-05      2.19545      173.199 
-0.000295661      6.91925      54.8859 
0.000221991      3.27200     -106.330 
-3.51942e-05      5.42988      139.032 
0.000140637      6.76996      60.6330 
0.000395181      4.79887      42.4664 
-0.000748805      7.39951      128.636 
0.000307664      6.37975      57.1569 
0.000121171      6.98115      129.070 
-0.000442792      3.70022     -113.239 
-0.000188805      4.52637      56.1695 
-0.000121755      2.30417      36.1736 
0.000191367      5.88558      46.6523 
3.51509e-05      7.00103     -147.127 
-0.000156468      8.27413      135.881 
0.000155111      5.12039      55.5030 
3.49023e-05      7.21271      134.551 
3.48202e-05      6.84135     -147.657 
-8.63193e-05      5.00400      145.421 
-8.66324e-05      4.85391     -38.4755 
-3.46822e-05      5.55388      107.391 
0.000787418      6.76018      60.7808 
0.000256235      5.28787      79.5401 
3.48465e-05      7.00702     -147.353 
0.000728525      4.94502      105.723 
-8.55209e-05      3.36719      3.74616 
-1.74381e-05      6.15123      106.432 
0.000136502      5.87554     -145.120 
-0.000375987      6.54795      64.2959 
-5.18224e-05      6.31880     -141.425 
0.000102510      1.66517     -24.1022 
-0.000238963     0.962081     -43.3153 
-0.000189232      2.53298     -15.5725 
-0.000186584      3.30938      97.6404 
-0.000425378      5.00308      95.5055 
-0.000597716      3.80000      126.870 
-0.000154556      3.25994      173.660 
-0.000102491      4.56846      45.8869 
3.45498e-05      6.27939     -152.700 
0.000188025      6.99019     -147.265 
-0.000685150      5.58290      110.772 
0.000102960      4.15740      14.7716 
-5.14914e-05      5.61712      169.330 
0.000373279      4.26305     -72.2451 
-6.80727e-05      3.99224      103.619 
-0.000777060      3.22248     -96.7722 
-0.000613121      6.35449      111.801 
1.72750e-05      4.51885     -61.7336 
0.000337593      5.95587      136.497 
0.000303589      4.23141     -115.475 
8.54461e-05     0.625140     -172.648 
-5.12354e-05      3.85507      63.8338 
-0.000541263      6.81202     -142.996 
0.000185993      2.84084     -170.272 
0.000338418      4.50941     -61.9574 
-1.72005e-05      6.14560      106.253 
0.000135877      6.29717     -152.784 
-3.41662e-05      3.82460      35.8512 
-0.000203441      6.06577      138.743 
1.71966e-05      1.80887      125.096 
8.49679e-05      5.44929      67.1051 
5.12259e-05      5.61427      122.784 
-1.71556e-05      4.64414      137.793 
0.000185924      5.15713      41.5413 
3.41004e-05      4.98658     -172.162 
0.000505222      3.78338      6.37364 
3.41484e-05      4.60834      166.446 
0.000119060      5.01043     -125.086 
0.000337881      7.96987      132.457 
-0.000441980      6.93562      54.9809 
0.000170394      5.85922      47.2132 
0.000101839      2.34196     -7.85331 
-0.000118816      6.03914      103.990 
1.71001e-05      1.30599      62.6501 
1.70990e-05      1.64694     -24.3864 
1.71010e-05      2.24000      0.00000 
-0.000437853      4.97855     -130.601 
0.000269986      3.48006     -157.709 
-0.000336680      8.27374      135.686 
1.70673e-05      3.52931      162.181 
-0.000487985      4.71088     -119.504 
0.000235725      4.74856     -124.359 
8.43522e-05      1.49412     -152.063 
0.000319232      2.61396      9.24611 
-1.70481e-05      6.62435      143.718 
-0.000101894      2.51372     -15.6949 
-0.000939078      3.00958      156.501 
-1.70230e-05      1.40911      124.592 
-1.70209e-05      6.11268      59.7436 
0.000185763      4.17675      14.7017 
-0.000101538      1.93205      152.904 
-3.39839e-05      3.27768      174.046 
0.000587735      6.06267      88.2986 
-0.000420599      4.58214     -172.224 
0.000218724      3.50964      85.7515 
-0.00179942      4.82800     -36.9174 
8.45278e-05      6.38238      160.600 
-0.000168718      6.60824      143.616 
-0.00135997      3.25779      174.009 
-5.06068e-05      1.40357      122.784 
0.00486474      7.20561     -146.089 
-0.000301885      6.11182      93.5646 
-1.69629e-05      5.54794      107.194 
3.37327e-05      4.70561      103.268 
0.000402426     0.644981     -172.875 
0.000520357      5.84688      47.6340 
5.05627e-05      2.65307     -49.5861 
5.06522e-05      6.99377      129.197 
-0.00133078      2.53842     -16.0074 
-0.000185209      6.66240      55.6421 
-0.000134262      4.90763     -173.918 
-1.69055e-05      1.39786      123.917 
5.06375e-05      1.38593     -45.0000 
-5.04742e-05      5.02048      145.550 
0.000285490    0.0894427      26.5651 
-1.68793e-05      1.49345      110.376 
0.000440592      2.80000     -90.0000 
0.000704900      6.75825      61.1595 
-0.00181569      6.94711      54.8458 
-0.000151158      5.33655      94.5140 
-0.000100687      5.67866      175.354 
0.000251250      6.97338     -147.176 
-0.000167485      4.54299      56.3099 
3.35661e-05      5.35720      50.6052 
-0.00149324      6.36195      111.969 
-8.37969e-05      3.70864     -150.255 
6.70131e-05      1.31529      61.8763 
5.03486e-05      3.45809      60.1729 
6.71187e-05      5.10392      55.3758 
-0.000117500      1.90515      153.166 
-0.000823998      6.65114      55.7843 
0.000100545      1.40014     -44.4213 
0.000217654      6.97828      129.301 
0.000100616      6.40125      160.659 
0.000217601      5.02195     -125.272 
1.67955e-05      2.16009      90.5305 
1.67970e-05      2.66721     -8.19086 
0.00112461      6.43024      69.4231 
0.000267943      5.30754      79.5793 
0.000693299      4.78414      42.6282 
-0.000150610      6.39525     -150.388 
0.000100510      6.31497     -152.867 
3.35061e-05      2.74591      10.4915 
5.02720e-05      6.19839      70.9804 
-0.000150607      6.01973      104.036 
0.000607262      2.21964      114.487 
0.000982008      6.75044      60.9289 
0.000117150      5.41539      67.4127 
-0.000267756      5.00504      95.7334 
0.000320455      5.85915     -145.008 
3.35135e-05      1.65711     -23.4710 
-3.35076e-05      3.86394      63.5676 
5.01994e-05      2.32215     -7.92074 
6.69377e-05      4.34884      163.982 
-0.000582974      3.81203      127.110 
5.02863e-05      4.21046      14.3003 
-5.02628e-05      4.24853      26.5651 
-0.000516650     0.976729     -42.5104 
0.000183959      3.27768     -106.666 
-0.000335415      6.59215      143.513 
1.67608e-05      6.90275     -147.783 
-1.67409e-05      5.51514      169.342 
0.000649961      3.45398     -157.891 
0.00122844      6.49705     -140.872 
-0.000184297      4.54018      45.8924 
-3.34503e-05      5.49549      169.303 
0.000334921      4.26919     -71.9895 
1.67226e-05      5.73062      172.379 
-6.69221e-05      5.46234     -178.321 
0.00122787      4.22985      14.2334 
1.67321e-05      4.86378      161.044 
0.00182903      4.00250     -102.995 
-5.04505e-05      1.51222      110.113 
-8.36649e-05      5.44830      105.108 
0.000604518      7.97117      132.254 
0.000285204      2.72265      10.1543 
-0.000200750      1.92302      153.435 
-0.000284508      5.31662      94.5310 
0.000202339      5.83520      173.703 
0.00107253      5.40241      100.020 
1.67284e-05      2.68701     -8.13010 
6.68640e-05      4.27612     -53.5589 
-0.000117023      6.82800     -143.097 
-3.34450e-05      4.58873     -117.235 
-0.000218000      4.20405      27.1746 
0.000303015      6.42012      160.718 
0.000201413      5.32616     -165.651 
3.34269e-05      7.29712      142.125 
8.36392e-05      5.09258      55.5610 
-0.000200695      4.06241     -91.9749 
0.000301317    0.0721110      56.3100 
0.000285698      6.60109      117.031 
-0.000183872      5.48234     -178.328 
0.000169562      4.94619      116.669 
-1.67043e-05      4.22185      27.0506 
0.000201413      6.16208      150.440 
-5.02387e-05      3.67266      40.8043 
-8.35356e-05      5.47584      169.265 
0.000167867      5.84866      167.960 
-3.34327e-05      3.80195     -109.674 
0.000695012      6.17948      70.9200 
0.000150722      6.36892      57.3080 
0.000512802      7.95638      132.351 
-1.66944e-05      4.58947     -117.793 
-0.000168417      4.75786     -168.359 
-0.000153565      4.70515      177.320 
0.000409209      7.28486      142.249 
-0.000742546      6.84809     -143.431 
-6.68695e-05      5.65873      175.337 
-0.000100307      4.59883     -118.014 
-0.000383932      4.31968     -18.3511 
1.66882e-05      6.33277     -152.949 
1.66958e-05      5.36992      50.4403 
0.000121665      5.00100     -178.854 
-0.000252824      6.10442     -164.416 
-0.000357442      2.82765     -17.2815 
-0.000356428      1.93205     -117.096 
0.000451752      4.28803     -53.3439 
-3.34510e-05      6.12595      59.1646 
-0.00111580      4.96790     -130.101 
-3.34353e-05      2.14709      154.628 
0.000184517      6.34189     -152.788 
-0.000288179      4.53193      56.5203 
-0.000286720      6.38780     -150.144 
6.70400e-05      3.51118      85.4261 
1.67180e-05      2.24321     -68.0089 
1.67214e-05      2.70681     -8.07023 
-0.000480873      6.55665      64.1384 
-1.67181e-05      3.28956      97.6867 
0.000252524      5.03353     -125.458 
0.000321454      6.95658     -147.087 
3.35444e-05      2.86056     -170.340 
0.000272764      6.99097      129.428 
-5.01990e-05      6.45157      158.924 
-0.000117365      5.45619      169.226 
-0.000218041      4.55952     -119.714 
-6.70164e-05      4.88774     -173.893 
3.35005e-05      1.32484      61.1134 
6.69605e-05      3.74593      30.1243 
0.000537926      5.84825      47.9108 
-0.000185016      5.46297     -178.112 
6.72978e-05      4.24005     -115.719 
1.67477e-05      6.91968     -147.872 
-1.67447e-05      5.02573      145.867 
-0.000364645      2.15128      137.261 
0.000119854      2.82800     -143.049 
-1.67551e-05      3.72602     -150.408 
-0.000551973      6.11310      93.7517 
6.76764e-05      2.19180      64.6041 
-1.67431e-05      2.17807      172.614 
-3.35240e-05      5.60257      151.422 
0.000488288      6.85300     -152.164 
-8.43438e-05      5.44312      104.904 
-0.000152839      6.91402      140.046 
-0.000726173      4.08176     -91.6847 
-0.000241359      5.74087     -179.002 
0.000205255      5.69365     -138.132 
0.000136994      3.80326      6.34019 
-0.000661944      3.23586     -5.67535 
-0.000136141      6.56597      64.3716 
-0.000241372      6.47024      158.988 
0.000599935      6.79182     -151.699 
-0.000118533      5.00707      95.9611 
-0.000135774      1.94093      153.699 
-0.000258099      5.62014      151.520 
-5.06631e-05      6.35012     -141.650 
-0.000480667      6.17511      75.5587 
0.000273829     0.664831     -173.089 
-5.07108e-05      6.02462      104.221 
0.000465063      4.76508     -124.224 
0.000241191      4.44815     -163.276 
-0.00118300      4.57690     -119.590 
-0.000604862      3.68576      41.0397 
-0.000204734      5.43654      169.186 
-3.55402e-05      5.83332     -167.727 
-0.000187131      5.29668      94.5480 
0.000102524      4.07082     -172.945 
6.76215e-05      6.74240     -144.660 
-0.000452722      5.57584      110.580 
0.00153163      6.74863      61.3082 
3.38042e-05      2.63697      9.60521 
0.000362365      4.27542     -71.7346 
0.000276707      6.37501      57.5564 
3.39034e-05      3.28347     -107.000 
3.40031e-05      1.33462      60.3616 
0.000399428      6.06211      88.4876 
0.000222931      6.35969     -152.871 
0.000102450      5.78014      179.603 
-3.39902e-05      3.75111     -150.975 
0.000230320      1.33222     -82.2348 
-0.000675220      5.48296     -178.119 
-0.00162191      6.36946      112.135 
0.000439245      2.67978      9.88412 
6.81144e-05     0.688767      64.1790 
-0.000279105      6.57608      143.409 
-0.000137275      4.17775      27.6691 
8.57790e-05      3.84401      111.359 
-0.000316319      4.21701     -15.6841 
-0.000363032      2.51921     -16.1328 
-8.56188e-05      5.47284      105.255 
7.04388e-05      6.37787      60.2997 
-0.000361816      4.52628      46.0742 
0.000292782      6.68458     -143.884 
0.000243778      5.04516     -125.643 
0.000297869      4.24947     -115.359 
-0.00197700      6.95201      55.0755 
5.15887e-05      2.38663     -103.570 
1.70621e-05      5.32365      79.8299 
-0.000554135      3.20262     -96.8144 
7.01314e-05      4.92037      105.562 
0.000250322      4.92065      72.0069 
0.000389444     0.697711      62.7004 
0.000174920      6.61020      117.185 
-0.000788980      6.64590      55.5448 
0.000233955      5.19912      155.209 
-3.45814e-05      1.29244     -111.801 
-0.000143576      4.60196     -172.257 
0.000393871      2.54118      151.821 
3.45885e-05      5.78719      104.613 
-8.66683e-05      5.03126      96.3905 
0.000790483      4.40114      21.3179 
-0.000141622      3.73363     -150.826 
0.00112006      6.51257     -140.983 
-0.000418501      6.86842     -143.764 
-6.95208e-05     0.831865      80.3112 
-3.45677e-05      1.91416      153.970 
0.000488375      5.84770     -145.169 
-0.000395507      5.27674      94.5653 
1.72888e-05      6.93397     -146.768 
-0.000176126      5.46761      105.053 
0.000144267      5.32124     -165.859 
-3.47968e-05      5.54155     -140.565 
1.73112e-05      5.87241      167.810 
8.77267e-05      6.46770     -159.548 
0.000104849      6.93980     -146.997 
0.000233877      5.80031      179.407 
0.000142070      1.30981     -82.9835 
-5.23843e-05      4.07416     -111.906 
-0.000162453      1.93215      154.231 
0.000159148     0.368782      40.6013 
-0.000233402      6.23939     -148.501 
8.87377e-05      2.39140     -104.036 
0.000764652      6.66417     -143.543 
-0.000162720      1.91426     -117.368 
0.000145669      7.61372      137.129 
0.000272890      2.21142      114.015 
0.000436231      5.85594      170.763 
-0.000180434      4.16005      27.7970 
0.000107093      6.83011      151.108 
7.04887e-05      6.36883     -152.711 
0.000477472      6.91725     -146.678 
0.000254337      3.38024      44.2808 
-3.53614e-05      5.41690      169.146 
-0.000107983      5.03353      96.6167 
-0.000274439      4.08167     -112.166 
0.000177902      6.74863     -151.308 
-0.000180960     0.835464      78.9591 
-0.000198882      3.52483      73.5187 
-0.000401879      6.18466      75.9638 
-0.000522596      6.88456     -143.862 
1.76903e-05      3.51283      85.1009 
-1.77255e-05      4.99668      47.4332 
-1.77404e-05      6.02800     -143.092 
0.000329968      6.08227     -175.096 
-0.000294651      3.80757     -109.006 
-9.10165e-05      3.51141      73.1132 
1.77804e-05      4.99380     -155.385 
1.78084e-05      6.41355      160.887 
0.000202072      6.38661     -152.793 
7.28461e-05     0.702567     -175.101 
-0.000295002      6.01202     -142.978 
-0.000406759      4.55307     -64.2229 
0.000128419      4.36165     -144.707 
0.000110730      3.80552      6.63947 
0.000240121      6.46074     -159.714 
0.000129460      6.36431      57.7083 
-0.000127843      6.56539      63.9813 
9.16873e-05      7.31292      142.221 
0.000259132      4.00899      12.0948 
0.000481390      4.54440      25.5501 
-7.31732e-05      5.39351      169.315 
0.000296636      6.07806      108.018 
-0.000353178      6.11444      93.9387 
-0.000259960      5.46245      104.850 
-0.000241558      6.36255     -141.509 
0.000148293      4.02199     -102.931 
0.000259722      6.04268      88.2930 
0.000464373      6.76618     -151.390 
-9.17743e-05      6.20210      77.7117 
-9.24164e-05      1.53792      110.556 
-0.000334746      4.08240     -91.9653 
0.000223136     0.384187      38.6598 
5.57710e-05      4.28173     -71.4804 
-5.46615e-05      4.58681     -119.807 
-0.000128883      5.54058      90.8273 
-3.64846e-05      6.48891      159.051 
-0.000148663      1.30000     -120.510 
-1.82319e-05      4.52093      56.7317 
0.000205345      4.37269     -20.3413 
-0.000225282      5.61434      83.6598 
-0.000131063      5.40833      86.8202 
3.70395e-05      6.01332     -139.316 
-0.000148697      6.88898     -144.095 
-9.35466e-05      3.53055      73.2075 
5.60357e-05      4.25807     -115.602 
-0.000112543     0.991564     -41.7295 
-0.000188308     0.855102      79.2157 
-9.38704e-05      6.49609      158.886 
0.000112812      3.47252     -158.015 
-0.000131666      3.21403     -5.35583 
-0.000112880      6.55637      62.9660 
-0.000376906      6.90519     -144.192 
0.000132012     0.707107      61.2602 
3.74404e-05      5.05684     -125.827 
-5.63969e-05      2.99125      156.349 
-3.76212e-05      6.56003      143.305 
-0.000379111      6.96348      54.9406 
-9.45515e-05      4.17310     -15.5682 
-5.67906e-05      6.20638      77.5313 
-0.000113576      5.56129      91.2364 
-0.000113502      4.14270     -107.998 
5.68473e-05      3.12570     -172.648 
3.77644e-05      6.81261      151.027 
1.88536e-05      6.02638     -139.172 
3.79637e-05      5.84975      48.1875 
3.79266e-05      2.66008      9.95807 
-3.80237e-05      5.05814      97.0407 
1.89735e-05      2.55883      152.033 
1.89682e-05      5.18536     -138.440 
3.81671e-05      5.86413     -145.280 
-1.90190e-05      4.62177     -172.291 
3.81851e-05      5.58434      87.7422 
-3.82217e-05      3.51727      72.8015 
3.81973e-05      6.16058      70.8592 
-3.81970e-05      6.25645     -148.596 
-1.90757e-05      3.37929      32.1851 
1.91022e-05      6.43730      69.2564 
1.91327e-05      6.40440     -152.875 
1.91635e-05      5.50364     -145.213 
